"Time (s)","Acceleration x (m/s^2)","Acceleration y (m/s^2)","Acceleration z (m/s^2)"
1.192444700E-2,-4.713262558E0,7.100701332E0,5.778666496E0
1.401161300E-2,-4.694119930E0,7.028916359E0,5.831308842E0
1.610065300E-2,-4.670191765E0,6.957131863E0,5.870192051E0
1.820078100E-2,-4.655834675E0,6.895516872E0,5.970690727E0
2.032494800E-2,-4.641477585E0,6.857231617E0,6.061617851E0
2.245006000E-2,-4.627718925E0,6.824330330E0,6.133402824E0
2.457356400E-2,-4.594219685E0,6.829115868E0,6.238687038E0
2.669937800E-2,-4.590032101E0,6.848856449E0,6.296114445E0
2.882283100E-2,-4.542175770E0,6.839285374E0,6.396613121E0
3.093779200E-2,-4.485345840E0,6.849454880E0,6.483353138E0
3.307403200E-2,-4.452444553E0,6.892525673E0,6.531209469E0
3.519125000E-2,-4.385445595E0,6.960123062E0,6.570092678E0
3.733165100E-2,-4.309473515E0,7.060621262E0,6.652047157E0
3.945427100E-2,-4.257429600E0,7.161119938E0,6.614359856E0
4.158253700E-2,-4.186243057E0,7.267002583E0,6.681957245E0
4.370590000E-2,-4.096512318E0,7.363313675E0,6.969096184E0
4.583246700E-2,-3.973282099E0,7.460222721E0,7.199405193E0
4.795733300E-2,-3.825525284E0,7.632505894E0,7.167101860E0
5.008116400E-2,-3.631108284E0,7.767700672E0,7.498507977E0
5.219713100E-2,-3.431905985E0,7.874181271E0,7.710870743E0
5.432167300E-2,-3.265006542E0,7.965706348E0,7.788637638E0
5.646046700E-2,-3.088535786E0,8.024331093E0,7.886145115E0
5.858818300E-2,-2.831905603E0,7.864011765E0,8.543573380E0
6.071445400E-2,-2.588435888E0,7.660023689E0,8.809176445E0
6.283469400E-2,-2.474178553E0,7.746165276E0,8.819944382E0
6.496382400E-2,-2.434697151E0,7.707281590E0,8.467002869E0
6.708949500E-2,-2.337787628E0,7.664210796E0,8.115258217E0
6.921603200E-2,-2.216950178E0,7.711469173E0,7.744370461E0
7.133761300E-2,-2.076970100E0,7.730013371E0,7.349554539E0
7.345347900E-2,-1.796411633E0,7.471588612E0,6.742375851E0
7.559262900E-2,-1.549950838E0,7.336992264E0,6.015556335E0
7.771876800E-2,-1.298106313E0,7.193423271E0,5.240880013E0
7.984881300E-2,-1.204187989E0,7.205985546E0,4.502095699E0
8.197109800E-2,-9.308080077E-1,7.130013466E0,4.219144344E0
8.409589400E-2,-8.344969153E-1,7.034898758E0,4.143770695E0
8.622137300E-2,-5.054838061E-1,7.198806763E0,4.285545349E0
8.834708400E-2,-1.250249892E-1,7.392027378E0,4.648057938E0
9.047324400E-2,2.027917206E-1,7.547560692E0,5.076373100E0
9.259657600E-2,4.636093974E-1,7.654639721E0,5.570491314E0
9.471247200E-2,7.435696125E-1,7.642675400E0,6.223133564E0
9.683991400E-2,9.996016622E-1,7.520641804E0,6.932605267E0
9.897658100E-2,1.069591761E0,7.331010342E0,7.597211838E0
1.011046730E-1,1.207179070E0,6.859624386E0,8.320442200E0
1.032306510E-1,1.545763373E0,6.174080849E0,9.199206352E0
1.053503820E-1,1.944766641E0,5.652445316E0,1.040279675E1
1.074663480E-1,2.638685226E0,5.056034088E0,1.209691525E1
1.096066160E-1,3.661018610E0,4.055834293E0,1.445922947E1
1.117368660E-1,4.089334011E0,3.317050457E0,1.718166351E1
1.138599120E-1,4.591826439E0,2.513062000E0,2.034856415E1
1.159769580E-1,4.781457901E0,1.796411633E0,2.277249336E1
1.181072270E-1,4.920839787E0,1.293918848E0,2.443610382E1
1.202341190E-1,4.969294548E0,1.554138303E0,2.541416931E1
1.223615100E-1,4.803591251E0,1.781456470E0,2.465803719E1
1.244858590E-1,4.144967079E0,2.185843468E0,2.260200500E1
1.266116640E-1,2.981456995E0,2.836092949E0,1.989033890E1
1.287378940E-1,1.292124271E0,3.984647989E0,1.663669777E1
1.308643080E-1,-6.771687865E-1,5.763711452E0,1.341715431E1
1.329858590E-1,-1.147358418E0,6.605386734E0,1.184447193E1
1.350992120E-1,-1.146162033E0,7.167700291E0,1.106082249E1
1.372298570E-1,-1.079162955E0,7.668996811E0,1.052124119E1
1.393665150E-1,-7.740781307E-1,8.147561073E0,1.028016472E1
1.414955940E-1,-4.199403822E-1,8.425726891E0,1.004028416E1
1.436206960E-1,-1.316052489E-2,8.508278847E0,9.882955551E0
1.457441710E-1,3.649054468E-1,8.428119659E0,9.835099220E0
1.478710220E-1,6.472585201E-1,8.247461319E0,9.881759644E0
1.499965610E-1,9.062815905E-1,7.938189030E0,9.990034103E0
1.521213170E-1,1.150349498E0,7.461419106E0,1.023769188E1
1.542483420E-1,1.457229018E0,6.894320011E0,1.057149029E1
1.563784490E-1,1.730608940E0,6.174080849E0,1.104407310E1
1.584987280E-1,1.989033818E0,5.330012321E0,1.167876911E1
1.606245820E-1,2.285743713E0,4.476971149E0,1.242832088E1
1.627490640E-1,2.538784742E0,3.585046530E0,1.317727470E1
1.648770050E-1,2.687737942E0,2.903092146E0,1.369113255E1
1.670018720E-1,2.751147747E0,2.243869543E0,1.397049522E1
1.691276040E-1,2.623131752E0,1.947159410E0,1.384068394E1
1.712532140E-1,2.338984251E0,1.691725612E0,1.341296768E1
1.733791710E-1,1.900499344E0,1.650449395E0,1.291645622E1
1.755056360E-1,1.400399446E0,1.643270969E0,1.244267750E1
1.776300250E-1,9.146564603E-1,1.506281853E0,1.196949673E1
1.797438360E-1,5.060819983E-1,1.345962763E0,1.144008541E1
1.818836680E-1,1.160518974E-1,1.247856975E0,1.102493000E1
1.840079760E-1,-6.879365444E-2,9.409775138E-1,1.073240757E1
1.861376350E-1,-2.434697002E-1,6.000002623E-1,1.052602673E1
1.882594910E-1,-3.032902777E-1,-1.196411345E-2,1.045962620E1
1.903854680E-1,-4.929214716E-1,-4.384847581E-1,1.034357452E1
1.925114450E-1,-6.717849374E-1,-1.190429211E0,1.024307537E1
1.946370970E-1,-8.991031051E-1,-1.573879123E0,1.001635551E1
1.967600830E-1,-1.155135155E0,-2.063211441E0,9.790233612E0
1.988768830E-1,-1.487737536E0,-2.562114954E0,9.586843491E0
2.010147000E-1,-1.748555183E0,-2.788834810E0,9.198010445E0
2.031406160E-1,-2.057827473E0,-2.995813847E0,8.994022369E0
2.052691260E-1,-2.449054003E0,-3.035893679E0,8.827122688E0
2.073890590E-1,-2.835494757E0,-3.171088219E0,8.665607452E0
2.095028700E-1,-3.189034462E0,-3.029911757E0,8.460422516E0
2.116307890E-1,-3.570689678E0,-2.816352367E0,8.126624107E0
2.137699290E-1,-4.071985722E0,-2.737389088E0,7.905886173E0
2.158967400E-1,-4.393222332E0,-2.518445730E0,7.948956966E0
2.180151880E-1,-4.542175770E0,-2.318645239E0,7.956733704E0
2.201466890E-1,-4.604987144E0,-2.017747641E0,7.821538925E0
2.222722990E-1,-4.643870354E0,-1.625923038E0,7.710870743E0
2.243972080E-1,-4.591826439E0,-1.281954765E0,7.557730198E0
2.265108560E-1,-4.424927235E0,-9.804590940E-1,7.411170006E0
2.286499240E-1,-4.292125702E0,-7.788637877E-1,7.369295597E0
2.307760640E-1,-3.967299938E0,-5.437689424E-1,7.344171047E0
2.329058250E-1,-3.599403381E0,-3.750749528E-1,7.262216568E0
2.350273160E-1,-3.288934708E0,-3.116651475E-1,7.280162811E0
2.371499040E-1,-2.977867842E0,-3.014956415E-1,7.245467186E0
2.392659010E-1,-2.562114954E0,-3.092723191E-1,7.283751965E0
2.414048370E-1,-2.280359983E0,-3.559323549E-1,7.325028419E0
2.435305190E-1,-2.031506538E0,-4.265206456E-1,7.351947784E0
2.456570560E-1,-1.844866276E0,-5.455635786E-1,7.378268719E0
2.477692990E-1,-1.701296926E0,-6.023930907E-1,7.466204643E0
2.498957850E-1,-1.581655741E0,-6.305087805E-1,7.505686283E0
2.520335720E-1,-1.552941918E0,-6.257231236E-1,7.448856831E0
2.541623150E-1,-1.552941918E0,-6.017948985E-1,7.334001541E0
2.562886070E-1,-1.537986755E0,-5.449653864E-1,7.162316322E0
2.584110630E-1,-1.700100541E0,-5.694918036E-1,7.007979393E0
2.605368980E-1,-1.818545222E0,-5.706881881E-1,6.805785656E0
2.626633330E-1,-1.865803480E0,-5.808576941E-1,6.562315941E0
2.647900120E-1,-1.974676847E0,-6.005984545E-1,6.298507214E0
2.669151840E-1,-2.035693884E0,-5.922235847E-1,6.044867992E0
2.690399200E-1,-2.121237278E0,-5.832505226E-1,5.871986866E0
2.711657740E-1,-2.273779631E0,-5.934200287E-1,5.807978630E0
2.732913640E-1,-2.402992249E0,-6.227321029E-1,5.792425632E0
2.754187850E-1,-2.508276224E0,-7.758727670E-1,5.872584820E0
2.775482100E-1,-2.608176708E0,-8.859425783E-1,5.943173409E0
2.796661400E-1,-2.700898647E0,-5.796613097E-1,6.208776474E0
2.817950770E-1,-2.818146944E0,-2.733799815E-1,6.583851337E0
2.839204340E-1,-2.824727058E0,-5.742774159E-2,6.969694138E0
2.860498380E-1,-2.861815929E0,4.313062727E-1,7.445865631E0
2.881785500E-1,-3.065804005E0,8.853443861E-1,7.881359577E0
2.902977730E-1,-3.049054146E0,1.235294700E0,8.310871124E0
2.924236790E-1,-3.056232691E0,1.719243050E0,8.629117012E0
2.945480180E-1,-3.139383316E0,2.091925144E0,8.823533058E0
2.966721330E-1,-3.089133978E0,2.571087837E0,8.966505051E0
2.987883940E-1,-3.195614576E0,2.919243574E0,8.988039970E0
3.009280430E-1,-3.210569859E0,3.115455151E0,8.982656479E0
3.030529310E-1,-3.014956474E0,3.488735437E0,8.736195564E0
3.051820810E-1,-2.031506538E0,3.881756544E0,7.458428383E0
3.073069590E-1,-4.199403822E-1,4.332803726E0,5.614758492E0
3.094417760E-1,-5.874379873E-1,4.426123619E0,6.867999077E0
3.115561250E-1,-1.364507079E0,4.336990833E0,9.044869423E0
3.136817460E-1,-1.567897081E0,4.185046673E0,9.973284721E0
3.158038880E-1,-1.231107235E0,3.999004841E0,9.519845009E0
3.179300980E-1,-8.691928387E-1,3.845266104E0,8.679366112E0
3.200592180E-1,-6.945167780E-1,3.725026608E0,8.075178146E0
3.221849510E-1,-5.210371017E-1,3.619742393E0,7.743772507E0
3.243116090E-1,-2.380858511E-1,3.539582968E0,7.570292473E0
3.264365790E-1,1.453639716E-1,3.401995659E0,7.541578770E0
3.285624330E-1,5.946164131E-1,3.136392355E0,7.771887779E0
3.306882060E-1,1.091725349E0,2.770888567E0,8.155337334E0
3.328144060E-1,1.646261930E0,2.419741869E0,8.458627701E0
3.349406680E-1,2.038086653E0,2.321038008E0,8.606385231E0
3.370681090E-1,2.315055847E0,2.389233351E0,8.623732567E0
3.392005050E-1,2.582453728E0,2.528615236E0,8.645866394E0
3.413129620E-1,3.283550978E0,2.327019930E0,9.265607834E0
3.434430380E-1,3.955934048E0,2.000998020E0,1.006122112E1
3.455666450E-1,4.466801643E0,1.740778446E0,1.050209904E1
3.476953980E-1,4.911268711E0,1.537388563E0,1.081316566E1
3.498205200E-1,5.298307419E0,1.381256819E0,1.092802143E1
3.519471990E-1,5.547161102E0,1.315454245E0,1.086401272E1
3.540698290E-1,5.734399319E0,1.287338614E0,1.073719311E1
3.561796820E-1,5.830112457E0,1.296909928E0,1.066181946E1
3.583010100E-1,5.964110374E0,1.297508121E0,1.061575794E1
3.604469650E-1,5.916851997E0,1.392024517E0,1.040997505E1
3.625680490E-1,5.783452511E0,1.530210137E0,1.019820976E1
3.646972400E-1,5.717051506E0,1.619940877E0,1.000618649E1
3.668223430E-1,5.367699623E0,1.790429592E0,9.806385040E0
3.689371900E-1,5.000401020E0,2.018345833E0,9.495916367E0
3.710805820E-1,4.464408875E0,2.388635159E0,9.317052841E0
3.732041980E-1,3.832105398E0,2.821137905E0,9.151350021E0
3.753341020E-1,3.128017426E0,3.382853031E0,9.094520569E0
3.774555100E-1,2.481357098E0,3.943969965E0,8.947361946E0
3.795786800E-1,2.007578135E0,4.472185612E0,8.568697929E0
3.816953890E-1,1.787438512E0,4.872385025E0,8.197810173E0
3.838332880E-1,1.748555183E0,5.192425251E0,8.076972961E0
3.859598040E-1,1.618744493E0,5.522036552E0,8.017750740E0
3.880874790E-1,1.292722464E0,5.898307800E0,8.022536278E0
3.902105260E-1,8.608179688E-1,6.303293228E0,8.030911446E0
3.923363200E-1,5.246263742E-1,6.613163471E0,8.212765694E0
3.944619910E-1,2.267199457E-1,6.889534473E0,8.394619942E0
3.965878460E-1,5.383851007E-3,7.166503906E0,8.453842163E0
3.987136290E-1,-3.349951655E-2,7.390830994E0,8.410173416E0
4.008364920E-1,5.742774159E-2,7.591827869E0,8.310273170E0
4.029533240E-1,2.392822653E-1,7.725826263E0,8.164310455E0
4.050909380E-1,4.109672904E-1,7.846065521E0,8.065607071E0
4.072168330E-1,5.306084156E-1,7.989634991E0,7.952546120E0
4.093455360E-1,7.316055298E-1,8.018946648E0,7.859225750E0
4.114683490E-1,1.033101201E0,8.067401886E0,7.747959614E0
4.135940820E-1,1.439880967E0,8.054839134E0,7.676175117E0
4.157198860E-1,1.880160451E0,8.027321815E0,7.505088329E0
4.178461150E-1,2.201396942E0,8.037490845E0,7.303493023E0
4.199763950E-1,2.503490686E0,7.995018482E0,7.106683254E0
4.221129820E-1,2.657229662E0,7.975875854E0,6.869793892E0
4.242233960E-1,2.562713146E0,8.012965202E0,6.534798622E0
4.263487620E-1,2.468196630E0,8.031509399E0,6.184848309E0
4.284712790E-1,2.254039049E0,8.111070633E0,5.781657696E0
4.305970830E-1,2.064407825E0,8.128418922E0,5.368896008E0
4.327132940E-1,1.802991867E0,8.160123825E0,4.974080086E0
4.348525150E-1,1.459621787E0,8.182256699E0,4.588237286E0
4.369790910E-1,9.828519225E-1,8.279764175E0,4.200600147E0
4.391070930E-1,5.006981492E-1,8.416155815E0,3.884747505E0
4.412296210E-1,4.187439755E-2,8.600402832E0,3.687937975E0
4.433526380E-1,-4.701896608E-1,8.832506180E0,3.519243956E0
4.454720020E-1,-9.912267923E-1,9.055039406E0,3.426522017E0
4.476068380E-1,-1.355534077E0,9.330811501E0,3.326621771E0
4.497305060E-1,-1.757528186E0,9.558728218E0,3.202194929E0
4.518523930E-1,-1.817947030E0,9.786644936E0,2.494517565E0
4.539853790E-1,-1.533201098E0,9.920044899E0,1.729412556E0
4.561103790E-1,-8.063812256E-1,9.807581902E0,1.747358680E0
4.582382070E-1,9.810572863E-2,9.269794464E0,3.443870068E0
4.603613750E-1,9.302098155E-1,8.464012146E0,5.416752338E0
4.624872810E-1,1.483550072E0,7.650452137E0,6.508477688E0
4.646131560E-1,1.714457393E0,7.034898758E0,6.674778938E0
4.667390010E-1,1.797608018E0,6.675975323E0,6.418746948E0
4.688650280E-1,1.789831281E0,6.751348972E0,5.883950710E0
4.709890210E-1,1.890928149E0,7.056434155E0,5.306682587E0
4.731007760E-1,2.173281193E0,7.496713161E0,4.865206718E0
4.752208130E-1,2.560320139E0,7.932805061E0,4.625326157E0
4.773651300E-1,2.980260611E0,8.277970314E0,4.520041943E0
4.794963350E-1,3.381058455E0,8.509475708E0,4.500301361E0
4.816248450E-1,3.681955814E0,8.668000221E0,4.441677094E0
4.837459390E-1,3.815953970E0,8.792427063E0,4.361517429E0
4.858714480E-1,3.772883177E0,8.797212601E0,4.222733974E0
4.879949010E-1,3.616153240E0,8.714659691E0,4.068396568E0
4.901074800E-1,3.387638569E0,8.584251404E0,3.932005882E0
4.922345050E-1,3.235694408E0,8.373085022E0,3.806980848E0
4.943679290E-1,3.178864956E0,8.215158463E0,3.734597921E0
4.964940270E-1,3.833899975E0,8.337192535E0,3.756731510E0
4.986292190E-1,3.896113396E0,8.270193100E0,3.747758389E0
5.007527040E-1,3.762713671E0,8.240880966E0,3.660420418E0
5.028800440E-1,3.422932863E0,8.330612183E0,3.680161238E0
5.050047280E-1,2.929413080E0,8.429315567E0,3.802793503E0
5.071291780E-1,2.374278307E0,8.404191017E0,4.082753658E0
5.092519520E-1,1.904686809E0,8.331808090E0,4.450051785E0
5.113641040E-1,1.420738459E0,8.273183823E0,4.807180882E0
5.134902940E-1,9.128618240E-1,8.233702660E0,5.078167915E0
5.156190980E-1,4.677968323E-1,8.160721779E0,5.335396290E0
5.177614320E-1,1.130608693E-1,8.064410210E0,5.613562107E0
5.198874800E-1,-1.124626622E-1,7.978269100E0,5.925825119E0
5.220139650E-1,-2.614158690E-1,7.887341499E0,6.282355785E0
5.241355180E-1,-3.487538993E-1,7.830512047E0,6.639484406E0
5.262613830E-1,-4.504488707E-1,7.792825222E0,6.967899323E0
5.283870120E-1,-4.462614357E-1,7.798209190E0,7.229913712E0
5.305128670E-1,-3.714857101E-1,7.884948730E0,7.526623726E0
5.326386510E-1,-2.189432681E-1,7.924430370E0,7.752745152E0
5.347611070E-1,-2.392822690E-2,8.002197266E0,7.941180229E0
5.368774820E-1,1.896311939E-1,8.165507317E0,8.167302132E0
5.390171390E-1,4.570291340E-1,8.295916557E0,8.122436523E0
5.411419570E-1,7.250252366E-1,8.363512993E0,8.015955925E0
5.432712700E-1,1.040877819E0,8.421539307E0,7.871788502E0
5.453932090E-1,1.357926846E0,8.331210136E0,7.532007694E0
5.475192140E-1,1.732403636E0,8.279166222E0,7.230511665E0
5.496449280E-1,2.096710920E0,8.213363647E0,7.030112743E0
5.517707710E-1,2.399402857E0,8.070392609E0,6.680760860E0
5.538931880E-1,2.678765059E0,7.903493404E0,6.321238995E0
5.560068150E-1,3.409772158E0,8.082356453E0,6.157928944E0
5.581421700E-1,3.759124279E0,8.026124954E0,6.176473618E0
5.602743830E-1,3.927220106E0,7.983652592E0,6.092126369E0
5.624033710E-1,3.922434568E0,8.093124390E0,5.906084538E0
5.645270390E-1,3.789034605E0,8.154739380E0,5.737390518E0
5.666512150E-1,3.669991732E0,8.067999840E0,5.673980713E0
5.687772420E-1,3.584448338E0,7.905287743E0,5.630311489E0
5.709033710E-1,3.442075491E0,7.732406139E0,5.485546112E0
5.730298670E-1,3.290131092E0,7.597211838E0,5.303092957E0
5.751489260E-1,3.243471146E0,7.506284714E0,5.183452129E0
5.772544450E-1,3.220141172E0,7.462615490E0,4.953741074E0
5.793929140E-1,3.145365477E0,7.399205685E0,4.585844517E0
5.815323690E-1,2.998206854E0,7.345367432E0,4.264009953E0
5.836634520E-1,3.013760090E0,7.435696602E0,3.882354736E0
5.857867840E-1,3.036491871E0,7.569694519E0,4.049253941E0
5.879095460E-1,3.002394199E0,7.732406139E0,4.063013077E0
5.900361640E-1,2.725425005E0,7.831110477E0,3.887738705E0
5.921612050E-1,2.392224550E0,7.915457249E0,3.415754318E0
5.942872320E-1,2.244467735E0,8.038687706E0,3.304488182E0
5.964141650E-1,1.948355794E0,8.013563156E0,3.129213810E0
5.985439970E-1,1.576870084E0,7.915457249E0,2.766701221E0
6.006566580E-1,1.281954765E0,7.818548203E0,2.544168711E0
6.027900710E-1,1.071984529E0,7.721638680E0,2.417947292E0
6.049141450E-1,9.343972206E-1,7.620542049E0,2.330609322E0
6.070443430E-1,9.152546525E-1,7.458428383E0,2.459223509E0
6.091672980E-1,9.014959335E-1,7.476972580E0,2.301895380E0
6.112930920E-1,8.356932998E-1,7.700701237E0,1.785045743E0
6.134186520E-1,8.697910309E-1,7.967501163E0,1.355534077E0
6.155434790E-1,1.083948612E0,8.207381248E0,1.295115232E0
6.176646930E-1,1.521835208E0,8.343772888E0,1.725225091E0
6.197879450E-1,1.798206210E0,8.478966713E0,1.866401672E0
6.219097200E-1,1.798804402E0,8.645268440E0,1.570289850E0
6.240503250E-1,1.790429592E0,8.754739761E0,1.216750264E0
6.261760890E-1,1.849651933E0,8.854042053E0,6.155536175E-1
6.283044650E-1,2.050648928E0,1.095912743E1,5.410770416E0
6.304321190E-1,2.316252232E0,1.022632599E1,6.665805817E0
6.325509350E-1,2.310270309E0,6.926623344E0,1.904088616E0
6.346768810E-1,2.170888424E0,6.565905571E0,1.120439172E0
6.368008750E-1,3.064607620E0,7.770093441E0,1.395613790E0
6.389271660E-1,3.972683907E0,8.496912956E0,2.154138565E0
6.410496440E-1,4.060619831E0,8.030312538E0,7.387840152E-1
6.431802690E-1,3.956532240E0,7.234101295E0,-2.823530734E-1
6.453061950E-1,3.856631994E0,6.901498795E0,-1.399801254E0
6.474327920E-1,3.676572084E0,7.238886833E0,-2.175673962E0
6.495548620E-1,3.400799274E0,7.365706444E0,-2.776272535E0
6.516734330E-1,3.079562664E0,7.066005230E0,-3.524029493E0
6.538093480E-1,2.837289333E0,6.935596466E0,-3.836292982E0
6.559351420E-1,2.635694027E0,7.126423836E0,-3.848855257E0
6.580615250E-1,2.567498684E0,7.451249599E0,-3.754936934E0
6.601761600E-1,2.537588358E0,7.771289825E0,-3.722633839E0
6.623122480E-1,2.483749866E0,8.101499557E0,-3.623331785E0
6.644380110E-1,2.367697954E0,8.297710419E0,-3.443870068E0
6.665662470E-1,2.156531334E0,8.373682976E0,-3.260220766E0
6.686896080E-1,1.359721422E0,7.987840176E0,-3.335594654E0
6.708152180E-1,1.555932879E0,8.368298531E0,-2.417947292E0
6.729414900E-1,1.646860242E0,8.772088051E0,-1.496112347E0
6.750680670E-1,1.680957913E0,9.142376900E0,-6.281159520E-1
6.771932910E-1,1.654038668E0,9.397212982E0,-3.230310604E-2
6.793154930E-1,1.533201098E0,9.488140106E0,3.146561682E-1
6.814277570E-1,4.762913704E0,8.629714966E0,-6.428318024E0
6.835571010E-1,8.206185341E0,8.940183640E0,-3.518406296E1
6.856959870E-1,4.050450325E0,1.190070343E1,-2.540639305E1
6.878249640E-1,8.632107973E-1,1.117208862E1,-1.176251793E1
6.899511550E-1,-2.219343036E-1,9.453444481E0,4.420739710E-1
6.920748010E-1,-9.308080077E-1,1.019581699E1,6.804589272E0
6.942003100E-1,-8.614161611E-1,1.097707367E1,5.419743061E0
6.963252290E-1,-5.605186820E-1,1.109312534E1,5.441876888E0
6.984504930E-1,1.043868899E0,1.040339470E1,-1.842473447E-1
7.005743340E-1,2.898306370E0,1.029153061E1,-6.506084919E0
7.026929760E-1,2.757728100E0,1.069292641E1,-6.379265308E0
7.048281590E-1,2.014756680E0,1.068275642E1,-3.128017426E0
7.069508700E-1,1.549352646E0,1.031067276E1,3.517449200E-1
7.090668260E-1,1.617548108E0,9.986445427E0,2.944368362E0
7.111925590E-1,1.858624935E0,9.927223206E0,3.882952929E0
7.133316590E-1,2.151147604E0,9.657432556E0,2.522035122E0
7.154601790E-1,2.548356056E0,9.256634712E0,-6.460621208E-2
7.175860830E-1,2.538186550E0,9.127422333E0,-2.340778828E0
7.197101780E-1,2.368296146E0,9.314062119E0,-1.918445587E0
7.218374470E-1,2.043470621E0,9.263813019E0,-4.666004181E-1
7.239477780E-1,1.828116536E0,9.390034676E0,8.195417523E-1
7.260871320E-1,1.872981906E0,9.544371605E0,1.478166223E0
7.282102490E-1,2.193620205E0,9.579067230E0,1.343569875E0
7.303411600E-1,2.607578516E0,9.588040352E0,5.324030519E-1
7.324632100E-1,2.882154942E0,9.659226418E0,-1.232303679E-1
7.345892170E-1,3.064009428E0,9.713065147E0,-1.166501045E-1
7.367151840E-1,3.119044304E0,9.762118340E0,4.803591371E-1
7.388407730E-1,3.135195971E0,9.897313118E0,1.072582722E0
7.409636780E-1,3.062813044E0,9.839884758E0,1.286740422E0
7.430773160E-1,3.091526747E0,9.893125534E0,1.334596872E0
7.452054890E-1,3.095714331E0,9.960124016E0,1.348953724E0
7.473444260E-1,2.977269650E0,1.000199890E1,1.113260746E0
7.494727720E-1,2.895913601E0,9.987043381E0,1.036092162E0
7.515987390E-1,2.929413080E0,9.991828918E0,1.031904817E0
7.537211650E-1,2.996412039E0,1.002592659E1,1.027717352E0
7.558471010E-1,3.058625460E0,1.004985523E1,9.708877802E-1
7.579734030E-1,3.131606579E0,1.003071213E1,7.525427341E-1
7.601006720E-1,3.232703447E0,1.004447079E1,5.054838061E-1
7.622257740E-1,3.362514019E0,1.005404282E1,2.392822653E-1
7.643471940E-1,3.482753277E0,1.001575756E1,1.196411345E-2
7.664626320E-1,3.612564087E0,1.002532864E1,-1.250249892E-1
7.686016690E-1,3.693919897E0,1.004985523E1,-1.381855011E-1
7.707277680E-1,3.693919897E0,1.006421185E1,-1.381855011E-1
7.728568170E-1,3.698705673E0,1.004985523E1,-1.573280841E-1
7.749796100E-1,3.626322746E0,1.006899738E1,-6.759724021E-2
7.771062470E-1,3.549752474E0,9.978070259E0,2.691925503E-2
7.792313490E-1,3.411566973E0,9.872187614E0,8.315058798E-2
7.813570610E-1,3.244667530E0,9.780662537E0,1.148554832E-1
7.834842990E-1,2.977269650E0,9.655637741E0,1.070788130E-1
7.856133480E-1,2.737987280E0,9.616754532E0,1.998006850E-1
7.877179210E-1,2.545963287E0,9.664012909E0,2.596212626E-1
7.898468070E-1,2.464607239E0,9.716055870E0,2.344966233E-1
7.919839540E-1,2.441875458E0,9.644271851E0,1.196411327E-1
7.941172850E-1,2.461018085E0,9.615557671E0,4.366901144E-2
7.962468620E-1,2.547159672E0,9.601201057E0,9.750752151E-2
7.983633880E-1,2.723032236E0,9.588040352E0,2.853440940E-1
8.004887240E-1,2.861815929E0,9.646066666E0,2.919243574E-1
8.026131150E-1,2.986242771E0,9.717850685E0,1.686939895E-1
8.047425900E-1,3.115455151E0,9.756733894E0,1.513460279E-1
8.068734190E-1,3.225524902E0,9.728020668E0,4.307080805E-2
8.089876660E-1,3.250051260E0,9.680164337E0,-3.290131316E-2
8.111188510E-1,3.254238844E0,9.675976753E0,1.292124242E-1
8.132416540E-1,3.109472990E0,9.685547829E0,4.570291340E-1
8.153709270E-1,2.791825771E0,9.757332802E0,1.011565804E0
8.174951430E-1,2.358724833E0,9.871589661E0,1.693520188E0
8.196211090E-1,1.989632010E0,1.006660461E1,1.860419631E0
8.217467610E-1,1.846062660E0,1.035254669E1,1.581655741E0
8.238696760E-1,2.000399828E0,1.056730270E1,1.071984529E0
8.259840260E-1,2.370090723E0,1.064387321E1,5.419743061E-1
8.281128500E-1,2.801397085E0,1.065464115E1,1.794617027E-1
8.302512370E-1,3.008974552E0,1.056311512E1,-2.572284341E-1
8.323789530E-1,3.067000389E0,1.052004433E1,-4.378865361E-1
8.345045640E-1,3.041875839E0,1.048714352E1,-9.930214286E-2
8.366271340E-1,2.974876642E0,1.041535854E1,2.452643216E-2
8.387531090E-1,2.847458839E0,1.017547798E1,-2.105683982E-1
8.408790450E-1,2.569891453E0,9.446265221E0,-8.470591903E-1
8.430055710E-1,3.138785124E0,9.675378799E0,2.518445849E-1
8.451316390E-1,3.443870068E0,9.715457916E0,5.946164131E-1
8.472559370E-1,3.378665686E0,9.855438232E0,1.218544960E0
8.493804390E-1,3.166302681E0,1.010847950E1,1.563709617E0
8.515077280E-1,2.599801779E0,9.747162819E0,1.223928809E0
8.536336340E-1,2.811566591E0,1.006540871E1,1.960918188E0
8.557600070E-1,3.038884640E0,1.041535854E1,2.191825628E0
8.578828590E-1,3.037688255E0,1.072163963E1,2.210369825E0
8.600018580E-1,2.888136864E0,1.097468090E1,2.337189436E0
8.621379560E-1,2.676970243E0,1.111765194E1,2.458625317E0
8.642629170E-1,2.461616278E0,1.113619614E1,2.498705149E0
8.663948040E-1,2.147558212E0,1.091964626E1,2.304886341E0
8.685257130E-1,1.952543259E0,1.063669491E1,2.288734913E0
8.706270520E-1,1.962712765E0,1.035015392E1,2.351546526E0
8.727496310E-1,2.030309916E0,1.016351414E1,2.414358139E0
8.748884050E-1,2.193620205E0,1.001575756E1,2.288136721E0
8.770200260E-1,2.505285263E0,9.921240807E0,2.158325911E0
8.791482410E-1,1.931606054E0,9.436694145E0,2.481955290E0
8.812690810E-1,9.433703423E-1,8.682954788E0,2.834298372E0
8.833949460E-1,9.194421172E-1,8.143971443E0,3.345764160E0
8.855204760E-1,1.080957651E0,7.701299667E0,3.949951887E0
8.876435930E-1,1.056431174E0,7.644470215E0,4.322035789E0
8.897560810E-1,1.104287624E0,7.830512047E0,4.116851330E0
8.918799520E-1,1.291526079E0,8.050651550E0,3.689134359E0
8.940244530E-1,1.574477315E0,8.380263329E0,3.147758245E0
8.961544170E-1,1.784447432E0,8.819944382E0,2.748754978E0
8.982812170E-1,1.899302959E0,9.321838379E0,2.391027927E0
9.004015480E-1,1.950150490E0,9.804591179E0,2.376072884E0
9.025266700E-1,1.914856315E0,1.025444126E1,2.570489645E0
9.046525560E-1,1.774278045E0,1.066540909E1,2.659024239E0
9.067788280E-1,1.644467354E0,1.097049332E1,2.528017044E0
9.089070210E-1,1.491924882E0,1.112782192E1,2.392224550E0
9.110408710E-1,1.405783296E0,1.110329533E1,2.309672117E0
9.131570210E-1,1.349551916E0,1.101655579E1,2.166102648E0
9.152819200E-1,1.311864972E0,1.087777138E1,2.051845312E0
9.174053730E-1,1.322034478E0,1.081077290E1,1.946561217E0
9.195332420E-1,1.216750264E0,1.105364418E1,1.820937991E0
9.216592700E-1,9.122636318E-1,1.208076286E1,1.820339799E0
9.237853180E-1,1.108475089E0,1.161775208E1,2.076371908E0
9.259111830E-1,1.141974568E0,1.152263737E1,2.234298229E0
9.280374230E-1,1.124028444E0,1.121635628E1,2.153540373E0
9.301654340E-1,1.130010486E0,1.105842972E1,1.953739643E0
9.322881560E-1,1.039681435E0,1.086221886E1,1.943570137E0
9.344142340E-1,1.049850941E0,1.074736309E1,1.977069736E0
9.365366820E-1,9.930213690E-1,1.061815071E1,1.943570137E0
9.386538480E-1,9.732806087E-1,1.059900761E1,2.009970903E0
9.407814520E-1,9.643075466E-1,1.060379314E1,1.966900229E0
9.429171740E-1,9.062815905E-1,1.068455124E1,1.961516380E0
9.450455210E-1,9.302098155E-1,1.073779202E1,2.028515339E0
9.471722810E-1,8.769695163E-1,1.078983593E1,2.084746838E0
9.492951040E-1,8.482556343E-1,1.084726334E1,2.008176327E0
9.514219660E-1,8.578268886E-1,1.088076305E1,1.979462504E0
9.535458170E-1,8.105686903E-1,1.092323494E1,1.892722726E0
9.556704710E-1,8.153542876E-1,1.093759251E1,1.816750646E0
9.577892450E-1,7.914260626E-1,1.099442196E1,1.777867198E0
9.599118140E-1,7.627122402E-1,1.102313614E1,1.706082582E0
9.620430700E-1,7.393822074E-1,1.103210926E1,1.619940877E0
9.641778560E-1,7.208378315E-1,1.104168034E1,1.505085468E0
9.663045350E-1,6.640082598E-1,1.103629589E1,1.332802176E0
9.684286500E-1,6.544370055E-1,1.102672482E1,1.246660590E0
9.705523580E-1,6.837490797E-1,1.100279713E1,1.146760225E0
9.726780290E-1,7.698906660E-1,1.097408295E1,1.057029366E0
9.748040260E-1,8.811569214E-1,1.086879826E1,8.913264275E-1
9.769298610E-1,9.583254457E-1,1.076351452E1,8.069794178E-1
9.790517270E-1,9.972088337E-1,1.069172955E1,6.735795736E-1
9.811653240E-1,1.006780148E0,1.052483082E1,7.363911867E-1
9.833074240E-1,1.040877819E0,1.038604641E1,7.657032609E-1
9.854333090E-1,1.463211060E0,9.785448074E0,7.956135273E-1
9.875665490E-1,1.531406522E0,9.537193298E0,7.633104324E-1
9.896992800E-1,1.550549030E0,9.474979401E0,8.111668825E-1
9.918107100E-1,2.191227436E0,9.324232101E0,8.715856671E-1
9.939366060E-1,1.728814363E0,9.440881729E0,3.457628787E-1
9.960555330E-1,1.326820135E0,9.588040352E0,4.360919297E-1
9.981760660E-1,9.206385016E-1,9.729815483E0,2.069791555E-1
1.000310934E0,4.845465720E-1,1.001934624E1,1.537388563E-1
1.002428355E0,1.537388563E-1,1.018086243E1,2.877369225E-1
1.004568187E0,-2.237289101E-1,1.011745262E1,3.505485058E-1
1.006687775E0,-4.839483798E-1,9.951150894E0,1.121037364E0
1.008806885E0,-7.591229677E-1,9.686145782E0,6.741777658E-1
1.010939912E0,-8.650053740E-1,9.647860527E0,8.973084688E-1
1.013052389E0,-7.932206988E-1,9.567103386E0,1.060618639E0
1.015185630E0,-6.628118753E-1,9.509675026E0,7.232306600E-1
1.017320292E0,-5.383850932E-1,9.557532310E0,6.340979934E-1
1.019449128E0,-2.189432681E-1,9.559326172E0,7.621139884E-1
1.021571300E0,-4.845465720E-2,9.799206734E0,1.035493970E0
1.023684216E0,2.021935135E-1,9.888339996E0,1.844866276E0
1.025823193E0,4.211367965E-1,9.628718376E0,9.409775138E-1
1.027948935E0,5.718846321E-1,9.750154495E0,1.529611826E0
1.030078380E0,4.229314029E-1,1.005045319E1,1.341177106E0
1.032202384E0,2.943171859E-1,9.825528145E0,1.392622828E0
1.034329622E0,2.955136001E-1,9.485747337E0,1.359721422E0
1.036452466E0,1.633101404E-1,9.221938133E0,1.163509965E0
1.038577801E0,1.555334684E-2,9.431310654E0,8.315058947E-1
1.040700024E0,-1.746760458E-1,9.315258980E0,7.202396393E-1
1.042820985E0,-3.583251834E-1,9.122037888E0,1.196411345E-2
1.044967806E0,-2.386840582E-1,9.180064201E0,-1.076770201E-2
1.047081361E0,-1.140778184E0,9.808179855E0,2.877369225E-1
1.049210857E0,-6.945167780E-1,9.912267685E0,1.147358418E0
1.051330019E0,-6.586244106E-1,9.887143135E0,4.935196638E-1
1.053458813E0,-4.564309120E-1,9.781859398E0,1.860419661E-1
1.055584129E0,-4.791627228E-1,9.652048111E0,-2.871387079E-2
1.057710166E0,-8.087740541E-1,9.612566948E0,-8.973085321E-3
1.059835929E0,-8.620143533E-1,9.679565430E0,8.614161611E-2
1.061961682E0,-1.115653515E0,9.421140671E0,3.032902777E-1
1.064087699E0,-1.468594909E0,9.696315765E0,-1.310070455E-1
1.066214378E0,-1.655235052E0,9.734002113E0,-3.290131316E-2
1.068339419E0,-1.670190215E0,9.887143135E0,-6.699903309E-2
1.070465191E0,-1.692323804E0,9.713663101E0,-4.342973232E-1
1.072590365E0,-1.635494232E0,9.838688850E0,-4.199403822E-1
1.074716352E0,-1.702493310E0,9.857233047E0,-4.348955154E-1
1.076842145E0,-1.783849239E0,9.842875481E0,-3.882354796E-1
1.078967877E0,-1.845464468E0,9.914062500E0,-4.893322289E-1
1.081094078E0,-1.917847395E0,9.837491989E0,-3.559323549E-1
1.083215599E0,-1.982453585E0,9.841081619E0,-9.200403094E-1
1.085325320E0,-1.996810555E0,9.731011391E0,-8.009973764E-1
1.087471306E0,-1.938784599E0,9.792626381E0,-1.124626637E0
1.089593539E0,-1.968096614E0,9.750154495E0,-9.008977413E-1
1.091714979E0,-2.006381750E0,9.821340561E0,-9.678967595E-1
1.093848870E0,-2.021337032E0,9.903294563E0,-8.542376757E-1
1.095974358E0,-2.211566210E0,9.835099220E0,-1.133001566E0
1.098103742E0,-2.273779631E0,9.781859398E0,-1.071386337E0
1.100227237E0,-2.234298229E0,9.662218094E0,-1.189831018E0
1.102352980E0,-2.096112728E0,9.701699257E0,-1.083350420E0
1.104472273E0,-2.176870346E0,9.557532310E0,-1.184447169E0
1.106577416E0,-2.213959217E0,9.546764374E0,-1.547558069E0
1.108715773E0,-2.199003935E0,9.489934921E0,-1.590030670E0
1.110854892E0,-2.161317110E0,9.509077072E0,-1.470389485E0
1.112986403E0,-2.209771633E0,9.538389206E0,-1.256231904E0
1.115110172E0,-2.268395901E0,9.696315765E0,-1.052243710E0
1.117233402E0,-2.446661234E0,9.683753014E0,-2.080559254E0
1.119358269E0,-2.529811859E0,9.641879082E0,-1.465603828E0
1.121481357E0,-2.422732830E0,9.598209381E0,-1.932204247E0
1.123594293E0,-2.265404940E0,9.494122505E0,-1.667199135E0
1.125715997E0,-2.309073925E0,9.494122505E0,-1.582253933E0
1.127848281E0,-2.350948334E0,9.492925644E0,-1.926222205E0
1.129989913E0,-2.411366940E0,9.652048111E0,-1.216152072E0
1.132117273E0,-2.512463808E0,9.501898766E0,-2.152343988E0
1.134243025E0,-2.538186550E0,9.468997002E0,-1.584646821E0
1.136364608E0,-2.436491728E0,9.401998520E0,-1.969891191E0
1.138490665E0,-2.370688915E0,9.345767021E0,-1.610967875E0
1.140616011E0,-2.408974171E0,9.340981483E0,-1.544566989E0
1.142741886E0,-2.436491728E0,9.334999084E0,-1.888535261E0
1.144864008E0,-2.428714991E0,9.417551994E0,-1.468594909E0
1.146978998E0,-2.411366940E0,9.580862045E0,-1.029511929E0
1.149119592E0,-2.570489645E0,9.568898201E0,-2.000399828E0
1.151246139E0,-2.572284460E0,9.526425362E0,-1.513460279E0
1.153371718E0,-2.513062000E0,9.492327690E0,-1.928016901E0
1.155483668E0,-2.422732830E0,9.502496719E0,-1.798206210E0
1.157615900E0,-2.438884497E0,9.513264656E0,-1.392622828E0
1.159748255E0,-2.475374937E0,9.531210899E0,-1.865803480E0
1.161876887E0,-2.514856577E0,9.607781410E0,-1.584646821E0
1.164001368E0,-2.443670034E0,9.546165466E0,-1.459621787E0
1.166125920E0,-2.620140791E0,9.640682220E0,-1.686341763E0
1.168252700E0,-2.592623234E0,9.622735977E0,-1.313659668E0
1.170378442E0,-2.491526604E0,9.617950439E0,-1.512862086E0
1.172503545E0,-2.452643156E0,9.602995872E0,-1.679163337E0
1.174628983E0,-2.457428932E0,9.589237213E0,-1.617548108E0
1.176754247E0,-2.499901533E0,9.531210899E0,-1.679761529E0
1.178880406E0,-2.581855536E0,9.545567513E0,-1.585245013E0
1.181006251E0,-2.624328136E0,9.521639824E0,-1.600200176E0
1.183132400E0,-2.648256540E0,9.516854286E0,-1.638485312E0
1.185258835E0,-2.653042078E0,9.483354568E0,-1.638485312E0
1.187383102E0,-2.662613392E0,9.473184586E0,-1.691127419E0
1.189507614E0,-2.657827854E0,9.435498238E0,-1.652842283E0
1.191634924E0,-2.623729944E0,9.406784058E0,-1.680957913E0
1.193761022E0,-2.628515720E0,9.368498802E0,-1.700100541E0
1.195883520E0,-2.695514679E0,9.358329773E0,-1.638485312E0
1.197996465E0,-2.719442844E0,9.348757744E0,-1.619940877E0
1.200138728E0,-2.733799934E0,9.320642471E0,-1.562513232E0
1.202265081E0,-2.700300455E0,9.287142754E0,-1.524227977E0
1.204393906E0,-2.652443886E0,9.253643036E0,-1.509272933E0
1.206512793E0,-2.662015200E0,9.253643036E0,-1.504487276E0
1.208625035E0,-2.709871531E0,9.258428574E0,-1.519442320E0
1.210754390E0,-2.762513638E0,9.253643036E0,-1.491326690E0
1.212893428E0,-2.772084951E0,9.253643036E0,-1.476969719E0
1.215022182E0,-2.800798893E0,9.244071960E0,-1.472782373E0
1.217144974E0,-2.810968399E0,9.244071960E0,-1.410568953E0
1.219252945E0,-2.806182861E0,9.258428574E0,-1.362712502E0
1.221374081E0,-2.796611547E0,9.282357216E0,-1.362712502E0
1.223522427E0,-2.797209740E0,9.277571678E0,-1.258026481E0
1.225650916E0,-2.811566591E0,9.277571678E0,-1.219741344E0
1.227779251E0,-2.792423964E0,9.278169632E0,-1.205384374E0
1.229899298E0,-2.882753134E0,9.224929810E0,-1.339980721E0
1.232025326E0,-3.065205812E0,9.315258980E0,-1.137188911E0
1.234151323E0,-3.013161898E0,9.263215065E0,-1.016949654E0
1.236278226E0,-3.041277647E0,9.291330338E0,-1.246660590E0
1.238400550E0,-3.037090063E0,9.244071960E0,-1.050449133E0
1.240515388E0,-3.079562664E0,9.243474007E0,-1.070189953E0
1.242654059E0,-3.108276606E0,9.157332420E0,-1.070189953E0
1.244779741E0,-3.251846075E0,9.180662155E0,-1.043270707E0
1.246909166E0,-3.266202927E0,9.152546883E0,-9.194421172E-1
1.249028296E0,-3.238087177E0,9.142974854E0,-9.002995491E-1
1.251144721E0,-3.160918713E0,9.123832703E0,-1.046859860E0
1.253284319E0,-3.237488985E0,9.119047165E0,-1.033699393E0
1.255409207E0,-3.232703447E0,9.138189316E0,-9.284151793E-1
1.257535376E0,-3.247060299E0,9.133403778E0,-9.619147182E-1
1.259644060E0,-3.280559778E0,9.109476089E0,-9.385846853E-1
1.261773495E0,-3.256631613E0,9.071190834E0,-9.337990284E-1
1.263912178E0,-3.308675528E0,9.008976936E0,-9.672985673E-1
1.266041267E0,-3.314059258E0,8.994620323E0,-8.386843204E-1
1.268167661E0,-3.251846075E0,8.937790871E0,-8.422735929E-1
1.270290575E0,-3.279961586E0,8.898907661E0,-9.284151793E-1
1.272415545E0,-3.342175007E0,8.860622406E0,-8.291130662E-1
1.274541440E0,-3.356531858E0,8.827122688E0,-8.721838593E-1
1.276666725E0,-3.423531055E0,8.798408508E0,-8.632107973E-1
1.278791694E0,-3.489931822E0,8.754739761E0,-8.303094506E-1
1.280914294E0,-3.499503136E0,8.735597610E0,-8.452646136E-1
1.283044401E0,-3.494717360E0,8.726025581E0,-8.165507317E-1
1.285170622E0,-3.500101328E0,8.726624489E0,-7.734799385E-1
1.287298520E0,-3.485744476E0,8.740981102E0,-7.686942816E-1
1.289421852E0,-3.485744476E0,8.769695282E0,-7.543373108E-1
1.291547981E0,-3.514458179E0,8.774480820E0,-7.447660565E-1
1.293672941E0,-3.528815269E0,8.821739197E0,-7.405785918E-1
1.295799132E0,-3.524029493E0,8.826524734E0,-7.166503668E-1
1.297924914E0,-3.515056372E0,8.855836868E0,-6.879364848E-1
1.300046608E0,-3.495913982E0,8.874979019E0,-6.831508875E-1
1.302160469E0,-3.481556892E0,8.874979019E0,-6.586244106E-1
1.304303658E0,-3.491128206E0,8.908478737E0,-6.831508875E-1
1.306429289E0,-3.515056372E0,8.889336586E0,-6.448656917E-1
1.308558368E0,-3.553341627E0,8.870193481E0,-6.167500615E-1
1.310679482E0,-3.610769272E0,8.836095810E0,-6.747759581E-1
1.312805255E0,-3.643670797E0,8.802596092E0,-6.987041831E-1
1.314931313E0,-3.715455294E0,8.787641525E0,-7.286145091E-1
1.317056994E0,-3.786641836E0,8.763712883E0,-8.051848412E-1
1.319183174E0,-3.844069481E0,8.739186287E0,-8.440681696E-1
1.321306638E0,-3.887140274E0,8.715258598E0,-8.590233326E-1
1.323419462E0,-3.910470486E0,8.700901031E0,-9.116654396E-1
1.325547636E0,-3.934398651E0,8.685946465E0,-9.499505758E-1
1.327685830E0,-3.953541279E0,8.671588898E0,-9.744769931E-1
1.329814686E0,-3.958326817E0,8.652446747E0,-9.505487680E-1
1.331940815E0,-3.967299938E0,8.618947029E0,-1.003190875E0
1.334063476E0,-3.976871252E0,8.657232285E0,-1.012762189E0
1.336189615E0,-3.991228104E0,8.638090134E0,-1.060618639E0
1.338316202E0,-3.966701746E0,8.638090134E0,-1.136590719E0
1.340441426E0,-3.990629911E0,8.642276764E0,-1.184447169E0
1.342564045E0,-4.033700943E0,8.670990944E0,-1.204187989E0
1.344680724E0,-4.071985722E0,8.675776482E0,-1.238285661E0
1.346818094E0,-4.095914364E0,8.660821915E0,-1.223928809E0
1.348943908E0,-4.090530396E0,8.636893272E0,-1.310070395E0
1.351072590E0,-4.066602230E0,8.603393555E0,-1.285543919E0
1.353193481E0,-4.066602230E0,8.546564102E0,-1.271187067E0
1.355313059E0,-4.056432724E0,8.531609535E0,-1.347757339E0
1.357447600E0,-4.022933006E0,8.479565620E0,-1.332802176E0
1.359573343E0,-4.051646709E0,8.483752251E0,-1.395015597E0
1.361697682E0,-4.046861172E0,8.459824562E0,-1.385444283E0
1.363811279E0,-4.051646709E0,8.474181175E0,-1.418943882E0
1.365950317E0,-4.079762459E0,8.478966713E0,-1.447657704E0
1.368076181E0,-4.051646709E0,8.469395638E0,-1.390229940E0
1.370205525E0,-4.065405846E0,8.474181175E0,-1.452443361E0
1.372328979E0,-4.027120590E0,8.469395638E0,-1.437488198E0
1.374451721E0,-4.017549038E0,8.469395638E0,-1.451845169E0
1.376564697E0,-4.017549038E0,8.435895920E0,-1.485344648E0
1.378691934E0,-4.017549038E0,8.464610100E0,-1.470987678E0
1.380830728E0,-4.036691666E0,8.445467949E0,-1.475773335E0
1.382959656E0,-4.031906128E0,8.426922798E0,-1.399203062E0
1.385084890E0,-4.012763500E0,8.407182693E0,-1.546959877E0
1.387205281E0,-4.036093712E0,8.402397156E0,-1.581057549E0
1.389335246E0,-4.098307133E0,8.416155815E0,-1.653440475E0
1.391460418E0,-4.131208420E0,8.382656097E0,-1.720439434E0
1.393586711E0,-4.207778454E0,8.382058144E0,-1.744965911E0
1.395711253E0,-4.268795490E0,8.324031830E0,-1.922034740E0
1.397837250E0,-4.369294167E0,8.357531548E0,-1.923829436E0
1.399963063E0,-4.484149456E0,8.285148621E0,-1.972284079E0
1.402085388E0,-4.631906509E0,8.312665939E0,-2.136790514E0
1.404199220E0,-4.760520458E0,8.250452042E0,-2.147558212E0
1.406330293E0,-4.946562767E0,8.282755852E0,-2.345564365E0
1.408453288E0,-5.099104881E0,8.258229256E0,-2.365903378E0
1.410595845E0,-5.256433010E0,8.252845764E0,-2.449054003E0
1.412719808E0,-5.433502197E0,8.256434441E0,-2.527418852E0
1.414846904E0,-5.567500114E0,8.261219978E0,-2.471785784E0
1.416969452E0,-5.672185898E0,8.260622025E0,-2.597409010E0
1.419095215E0,-5.748157978E0,8.221738815E0,-2.721835852E0
1.421221355E0,-5.848058701E0,8.206783295E0,-2.737389088E0
1.423348319E0,-5.972485542E0,8.201399803E0,-2.763111830E0
1.425467093E0,-6.116054535E0,8.196015358E0,-2.769093990E0
1.427575776E0,-6.220740795E0,8.196015358E0,-2.822932482E0
1.429723867E0,-6.282954216E0,8.195417404E0,-2.813959360E0
1.431849987E0,-6.335596085E0,8.190631866E0,-2.796013355E0
1.433981508E0,-6.330212116E0,8.152346611E0,-2.900699139E0
1.436101503E0,-6.272784710E0,8.133204460E0,-2.919243574E0
1.438227672E0,-6.235097408E0,8.142775536E0,-2.880360365E0
1.440354656E0,-6.177071571E0,8.085946083E0,-2.865405083E0
1.442480155E0,-6.129215240E0,8.071588516E0,-2.898306370E0
1.444605104E0,-6.023931026E0,7.990831375E0,-2.896511793E0
1.446730277E0,-5.918646812E0,7.977072716E0,-2.871387243E0
1.448856101E0,-5.813961029E0,7.929215908E0,-2.807977438E0
1.450982118E0,-5.718247890E0,7.948956966E0,-2.831307411E0
1.453107627E0,-5.526822090E0,7.792226791E0,-2.747558594E0
1.455232170E0,-4.878965378E0,7.173084259E0,-2.729014158E0
1.457357586E0,-3.926023722E0,6.626324177E0,-2.740380049E0
1.459485516E0,-4.387838364E0,7.470990658E0,-2.642872572E0
1.461611726E0,-2.649452925E0,6.559325218E0,-2.734996319E0
1.463737470E0,-4.473381996E0,7.627720356E0,-3.068794966E0
1.465858655E0,-4.362713814E0,8.237292290E0,-2.319243431E0
1.467972169E0,-5.221138954E0,8.874979019E0,-2.216351986E0
1.470114311E0,-5.581258774E0,9.242277145E0,-2.059023857E0
1.472240297E0,-6.016752720E0,9.445667267E0,-2.245664120E0
1.474367689E0,-6.125626087E0,9.291928291E0,-2.318047047E0
1.476480665E0,-6.029912949E0,9.120243073E0,-2.312064886E0
1.478625195E0,-5.952146530E0,8.909674644E0,-2.463410854E0
1.480743278E0,-5.716453075E0,8.504091263E0,-2.517249346E0
1.482872795E0,-5.471189022E0,8.151150703E0,-2.599203587E0
1.484993035E0,-5.551946640E0,8.102695465E0,-2.705085993E0
1.487117372E0,-5.729613781E0,8.179265976E0,-2.401795626E0
1.489233492E0,-5.657829285E0,8.060222626E0,-2.310270309E0
1.491373273E0,-5.639284611E0,8.141578674E0,-2.276770830E0
1.493498141E0,-5.644668579E0,8.199007034E0,-2.176870346E0
1.495631045E0,-5.730810165E0,8.285148621E0,-2.163709879E0
1.497761243E0,-5.621338367E0,8.324031830E0,-2.095514536E0
1.499864168E0,-5.530411243E0,8.362317085E0,-2.127817631E0
1.501998691E0,-5.439484119E0,8.314460754E0,-2.155334949E0
1.504113487E0,-5.382056236E0,8.310273170E0,-2.164308071E0
1.506256443E0,-5.358726501E0,8.343772888E0,-2.140379906E0
1.508379886E0,-5.295914650E0,8.362915039E0,-2.182254314E0
1.510504794E0,-5.161916733E0,8.253443718E0,-2.128415823E0
1.512614230E0,-4.961517811E0,8.173283577E0,-2.082952023E0
1.514742943E0,-4.884349346E0,8.163712502E0,-2.110469580E0
1.516877832E0,-4.971088886E0,8.245068550E0,-2.097309113E0
1.518994642E0,-4.933402061E0,8.245068550E0,-1.977667928E0
1.521136620E0,-4.938187599E0,8.216354370E0,-1.944168448E0
1.523259453E0,-5.005186558E0,8.230711937E0,-1.892722726E0
1.525390069E0,-5.009972572E0,8.235497475E0,-1.806581140E0
1.527510878E0,-5.010570526E0,8.250452042E0,-1.768295884E0
1.529636620E0,-5.044070244E0,8.231309891E0,-1.668395638E0
1.531762140E0,-5.063810825E0,8.193024635E0,-1.549352646E0
1.533888116E0,-5.116453171E0,8.178668022E0,-1.411765337E0
1.536013930E0,-5.169693470E0,8.154739380E0,-1.297508121E0
1.538135715E0,-5.231906891E0,8.130811691E0,-1.274178028E0
1.540253341E0,-5.217549801E0,8.097909927E0,-1.121635556E0
1.542406478E0,-5.198407173E0,8.059624672E0,-1.087537885E0
1.544517185E0,-5.266004562E0,8.026124954E0,-1.016949654E0
1.546647322E0,-5.313860893E0,8.030911446E0,-9.409775138E-1
1.548764998E0,-5.213362217E0,7.983652592E0,-8.871390224E-1
1.550894525E0,-5.193023205E0,7.815557003E0,-1.125224829E0
1.553020288E0,-5.557928562E0,7.977670670E0,-8.673982024E-1
1.555149479E0,-5.453242779E0,7.844869137E0,-5.509474277E-1
1.557283064E0,-5.423332691E0,7.853842258E0,-8.943174481E-1
1.559384475E0,-5.370690346E0,7.753942013E0,-7.549355626E-1
1.561519068E0,-5.361119270E0,7.682157040E0,-8.171489239E-1
1.563645065E0,-5.350351334E0,7.528418064E0,-9.690931439E-1
1.565778163E0,-5.704489231E0,7.603792191E0,-9.020941257E-1
1.567902155E0,-5.652445316E0,7.514061451E0,-6.861419082E-1
1.570026911E0,-5.627918720E0,7.470392227E0,-8.673982024E-1
1.572148747E0,-5.511867046E0,7.365108013E0,-1.042074203E0
1.574278539E0,-5.698507309E0,7.402794838E0,-1.149751306E0
1.576405065E0,-5.669793129E0,7.350750923E0,-9.822536707E-1
1.578528467E0,-5.650650501E0,7.378866673E0,-1.144367456E0
1.580639561E0,-5.606383324E0,7.297510624E0,-1.334596872E0
1.582769628E0,-5.673382282E0,7.306483746E0,-1.378265858E0
1.584906927E0,-5.711667538E0,7.263412952E0,-1.369292736E0
1.587036412E0,-5.715855122E0,7.239484787E0,-1.473978758E0
1.589162185E0,-5.748157978E0,7.162316322E0,-1.631905079E0
1.591284866E0,-5.843871117E0,7.161718369E0,-1.713859200E0
1.593411352E0,-5.862415314E0,7.085147858E0,-1.809572101E0
1.595536199E0,-5.895316601E0,7.036693096E0,-1.943570137E0
1.597662246E0,-5.937789440E0,7.003193855E0,-2.048854351E0
1.599788030E0,-6.004190445E0,6.969096184E0,-2.121237278E0
1.601915766E0,-6.109474182E0,6.973283291E0,-2.151147604E0
1.604039353E0,-6.190232277E0,6.920641422E0,-2.156531334E0
1.606165177E0,-6.184250355E0,6.881757736E0,-2.486142635E0
1.608290675E0,-6.289534092E0,6.900302410E0,-2.563311338E0
1.610417760E0,-6.355935097E0,6.880561352E0,-2.587837696E0
1.612542680E0,-6.399005890E0,6.794419765E0,-2.621935368E0
1.614668666E0,-6.460621357E0,6.841678143E0,-2.770888567E0
1.616793951E0,-6.449853420E0,6.769893646E0,-2.975475073E0
1.618919988E0,-6.502495766E0,6.841079712E0,-3.067000389E0
1.621045162E0,-6.545566559E0,6.778866768E0,-3.053241730E0
1.623169551E0,-6.568896294E0,6.783053875E0,-3.187239647E0
1.625297604E0,-6.592824459E0,6.806982040E0,-3.220739365E0
1.627424129E0,-6.631109715E0,6.811768055E0,-3.216551781E0
1.629545721E0,-6.554539204E0,6.773482800E0,-3.229712248E0
1.631660356E0,-6.529414654E0,6.754340172E0,-3.406183004E0
1.633800442E0,-6.615556240E0,6.777669907E0,-3.421736479E0
1.635926378E0,-6.659225464E0,6.796812534E0,-3.273979664E0
1.638055873E0,-6.630511761E0,6.768098831E0,-3.359523058E0
1.640177801E0,-6.711867332E0,6.811169624E0,-3.360719442E0
1.642300655E0,-6.678368092E0,6.753741741E0,-3.321835995E0
1.644417670E0,-6.677769661E0,6.811169624E0,-3.465405464E0
1.646556515E0,-6.678368092E0,6.806384087E0,-3.384049416E0
1.648681525E0,-6.659225464E0,6.792026997E0,-3.369692564E0
1.650809872E0,-6.611369133E0,6.806384087E0,-3.412165165E0
1.652932288E0,-6.616154671E0,6.811169624E0,-3.369094372E0
1.655058356E0,-6.573083878E0,6.844669342E0,-3.416352510E0
1.657184393E0,-6.549753666E0,6.902695179E0,-3.272783279E0
1.659310289E0,-6.506682873E0,6.869195461E0,-3.205784082E0
1.661433611E0,-6.487540245E0,6.897909641E0,-3.205185890E0
1.663543088E0,-6.468996048E0,6.908079147E0,-3.133401155E0
1.665661455E0,-6.468996048E0,6.903293133E0,-3.086143017E0
1.667797644E0,-6.430710793E0,6.869793892E0,-3.028116941E0
1.669942400E0,-6.454638958E0,6.855436802E0,-3.013760090E0
1.672070798E0,-6.469594002E0,6.870391846E0,-2.947359324E0
1.674192410E0,-6.507879257E0,6.841678143E0,-2.842673302E0
1.676308652E0,-6.493522644E0,6.846463680E0,-2.813959360E0
1.678443285E0,-6.537191391E0,6.894320011E0,-2.761915445E0
1.680567919E0,-6.566503525E0,6.927819729E0,-2.619542599E0
1.682693132E0,-6.552146435E0,6.937391281E0,-2.562114954E0
1.684806872E0,-6.552744865E0,6.957131863E0,-2.475973129E0
1.686944028E0,-6.558128834E0,6.985845566E0,-2.347358942E0
1.689071184E0,-6.519843578E0,6.976274490E0,-2.289333105E0
1.691200081E0,-6.525227547E0,6.957729816E0,-2.203789711E0
1.693323403E0,-6.539584160E0,6.972086906E0,-2.136790514E0
1.695449572E0,-6.539584160E0,6.957729816E0,-2.089532375E0
1.697574429E0,-6.549155712E0,6.948158741E0,-2.060818434E0
1.699700436E0,-6.611967087E0,6.967301369E0,-2.037488461E0
1.701825702E0,-6.626324177E0,6.981658459E0,-2.009372711E0
1.703947528E0,-6.631109715E0,6.976872444E0,-1.990230203E0
1.706060809E0,-6.674180508E0,7.019943237E0,-1.966900229E0
1.708200131E0,-6.678966045E0,7.029514790E0,-1.952543259E0
1.710313240E0,-6.698707104E0,7.086344242E0,-1.948355794E0
1.712447538E0,-6.741777897E0,7.105486870E0,-1.905883193E0
1.714582121E0,-6.736992359E0,7.115057945E0,-1.901097536E0
1.716709980E0,-6.741777897E0,7.105486870E0,-1.877169371E0
1.718835265E0,-6.760920525E0,7.148557663E0,-1.958525300E0
1.720957681E0,-6.784848690E0,7.115057945E0,-1.925624013E0
1.723083871E0,-6.779464722E0,7.081558704E0,-1.987239242E0
1.725205545E0,-6.789036274E0,7.061817646E0,-2.063809633E0
1.727319425E0,-6.821937561E0,7.033103943E0,-2.102094650E0
1.729462349E0,-6.841079712E0,6.975676060E0,-2.140379906E0
1.731587167E0,-6.850052834E0,6.908677101E0,-2.159522533E0
1.733717274E0,-6.897311211E0,6.893722057E0,-2.288734913E0
1.735841562E0,-6.926024914E0,6.850651264E0,-2.327618122E0
1.737977008E0,-6.944569588E0,6.817151546E0,-2.404188633E0
1.740090321E0,-6.991827965E0,6.773482800E0,-2.456830740E0
1.742215981E0,-7.030112743E0,6.725626469E0,-2.476571321E0
1.744339019E0,-7.106084824E0,6.701099873E0,-2.534597397E0
1.746465545E0,-7.072585583E0,6.644270420E0,-2.524427891E0
1.748580962E0,-7.124629498E0,6.605386734E0,-2.682354212E0
1.750719277E0,-7.210172653E0,6.518647194E0,-2.706880569E0
1.752844817E0,-7.258029461E0,6.470790863E0,-2.688336134E0
1.754970865E0,-7.319644451E0,6.427719593E0,-2.760719061E0
1.757083759E0,-7.405188084E0,6.417550564E0,-2.847458839E0
1.759222401E0,-7.476972580E0,6.373881340E0,-2.886342287E0
1.761348561E0,-7.495516777E0,6.345167637E0,-2.982055187E0
1.763478180E0,-7.590631485E0,6.344569206E0,-3.121437073E0
1.765596516E0,-7.657630444E0,6.291927338E0,-3.089133978E0
1.767715494E0,-7.791628838E0,6.257829189E0,-3.056830883E0
1.769863158E0,-7.925028801E0,6.199803352E0,-3.129812002E0
1.771977183E0,-8.043473244E0,6.113063812E0,-3.241078377E0
1.774106343E0,-8.124829292E0,6.041278839E0,-3.212962627E0
1.776226146E0,-8.196015358E0,5.930611134E0,-3.199802160E0
1.778354919E0,-8.263014793E0,5.892325878E0,-3.238685369E0
1.780481659E0,-8.263014793E0,5.834897995E0,-3.223730326E0
1.782607167E0,-8.253443718E0,5.772684574E0,-3.223730326E0
1.784732249E0,-8.181060791E0,5.711069584E0,-3.241676569E0
1.786856710E0,-8.056633949E0,5.668596745E0,-3.197409153E0
1.788976736E0,-7.908876896E0,5.626124382E0,-3.157329559E0
1.791096151E0,-7.760521889E0,5.598008633E0,-3.088535786E0
1.793235097E0,-7.660621643E0,5.593821049E0,-3.044866800E0
1.795362010E0,-7.560122967E0,5.570491314E0,-2.967100143E0
1.797491088E0,-7.497909546E0,5.541777134E0,-2.909074068E0
1.799612579E0,-7.450651646E0,5.528018475E0,-2.846262455E0
1.801738261E0,-7.383652687E0,5.494519234E0,-2.802593470E0
1.803863892E0,-7.359724045E0,5.480760098E0,-2.759522676E0
1.805989828E0,-7.350152969E0,5.428118229E0,-2.706880569E0
1.808115784E0,-7.345367432E0,5.385047436E0,-2.677568436E0
1.810241486E0,-7.345965385E0,5.333003521E0,-2.558525562E0
1.812367585E0,-7.354938507E0,5.304289818E0,-2.592025042E0
1.814494090E0,-7.402794838E0,5.289334297E0,-2.621337175E0
1.816617697E0,-7.436294556E0,5.284548759E0,-2.568695068E0
1.818739858E0,-7.455437183E0,5.260620594E0,-2.526222467E0
1.820870179E0,-7.460821152E0,5.246861935E0,-2.454437733E0
1.822996206E0,-7.494320393E0,5.241477966E0,-2.440679073E0
1.825123231E0,-7.546364307E0,5.246263504E0,-2.441277266E0
1.827247864E0,-7.493722439E0,5.184648514E0,-2.431107759E0
1.829373973E0,-7.427321434E0,5.146363258E0,-2.315654039E0
1.831500500E0,-7.408178806E0,5.123033047E0,-2.334198475E0
1.833625306E0,-7.455437183E0,5.103292465E0,-2.416152716E0
1.835751364E0,-7.508079052E0,5.108078003E0,-2.426322222E0
1.837878510E0,-7.584649563E0,5.121836662E0,-2.450848579E0
1.840008576E0,-7.532007694E0,5.093721390E0,-2.369492531E0
1.842128317E0,-7.517650604E0,5.093721390E0,-2.325823545E0
1.844254070E0,-7.536793232E0,5.093721390E0,-2.416750908E0
1.846378705E0,-7.569694519E0,5.102694511E0,-2.493919373E0
1.848506990E0,-7.612765312E0,5.107480049E0,-2.504088879E0
1.850632651E0,-7.655836105E0,5.130809784E0,-2.508874655E0
1.852757387E0,-7.655836105E0,5.149952412E0,-2.532802820E0
1.854882957E0,-7.622934818E0,5.160121918E0,-2.465803623E0
1.857008566E0,-7.627720356E0,5.160121918E0,-2.480160713E0
1.859131522E0,-7.665407181E0,5.149952412E0,-2.604587555E0
1.861247560E0,-7.684549809E0,5.164309502E0,-2.624328136E0
1.863386701E0,-7.713263988E0,5.187639713E0,-2.662613392E0
1.865513226E0,-7.665407181E0,5.169095039E0,-2.618944407E0
1.867641257E0,-7.665407181E0,5.154737949E0,-2.538186550E0
1.869760714E0,-7.736593723E0,5.163711071E0,-2.653042078E0
1.871876223E0,-7.813164234E0,5.168497086E0,-2.735594511E0
1.874015607E0,-7.880163193E0,5.172684193E0,-2.760120869E0
1.876141116E0,-7.913064480E0,5.163113117E0,-2.769692183E0
1.878266827E0,-7.880163193E0,5.139184952E0,-2.664407969E0
1.880376517E0,-7.928019524E0,5.110470772E0,-2.650649309E0
1.882504264E0,-7.984848976E0,5.086542606E0,-2.761317253E0
1.884634443E0,-8.042277336E0,5.062016487E0,-2.776272535E0
1.886773491E0,-8.103892326E0,5.033302307E0,-2.767299414E0
1.888895744E0,-8.156534195E0,5.004588604E0,-2.758326292E0
1.891008822E0,-8.085348129E0,4.971687317E0,-2.633301258E0
1.893135877E0,-8.051848412E0,4.957330227E0,-2.565704107E0
1.895273309E0,-8.084749222E0,4.937589645E0,-2.714059114E0
1.897402732E0,-8.094321251E0,4.942375183E0,-2.747558594E0
1.899530581E0,-8.094321251E0,4.947160721E0,-2.723630428E0
1.901654758E0,-8.156534195E0,4.942375183E0,-2.696112871E0
1.903763197E0,-8.085348129E0,4.923830986E0,-2.618944407E0
1.905902011E0,-7.989634991E0,4.886143684E0,-2.502892494E0
1.908026166E0,-7.965706348E0,4.871787071E0,-2.583650351E0
1.910157168E0,-7.950751305E0,4.861617565E0,-2.674577475E0
1.912279534E0,-7.941778183E0,4.833501816E0,-2.617149830E0
1.914405653E0,-7.941180229E0,4.800002098E0,-2.621337175E0
1.916532434E0,-7.907680511E0,4.771288395E0,-2.573480844E0
1.918658186E0,-7.850851059E0,4.747958183E0,-2.448455811E0
1.920786695E0,-7.860422611E0,4.738387108E0,-2.486740828E0
1.922921959E0,-7.917252064E0,4.704289436E0,-2.606980324E0
1.925034142E0,-7.979465485E0,4.689932346E0,-2.598007202E0
1.927160098E0,-8.022536278E0,4.675575256E0,-2.560320139E0
1.929282504E0,-8.051250458E0,4.641477585E0,-2.565105915E0
1.931412093E0,-8.093722343E0,4.627120972E0,-2.551347256E0
1.933538598E0,-8.122436523E0,4.612763882E0,-2.618346214E0
1.935663446E0,-8.012366295E0,4.541577339E0,-2.554936409E0
1.937789503E0,-7.974081516E0,4.503292084E0,-2.487937450E0
1.939914697E0,-7.949554920E0,4.450650215E0,-2.611167669E0
1.942038415E0,-7.973483086E0,4.436293125E0,-2.611765862E0
1.944153924E0,-7.949554920E0,4.398007870E0,-2.577668190E0
1.946279464E0,-7.963912010E0,4.374079704E0,-2.578266382E0
1.948418380E0,-7.973483086E0,4.393222332E0,-2.544766903E0
1.950547245E0,-7.987840176E0,4.359723091E0,-2.568695068E0
1.952672174E0,-8.026124954E0,4.350151539E0,-2.593221426E0
1.954791976E0,-7.978269100E0,4.316651821E0,-2.592623234E0
1.956921137E0,-7.930412292E0,4.259822369E0,-2.520240545E0
1.959047011E0,-7.877770424E0,4.231108665E0,-2.557329178E0
1.961173761E0,-7.881958008E0,4.192823410E0,-2.624328136E0
1.963295313E0,-7.881958008E0,4.159324169E0,-2.614757061E0
1.965411738E0,-7.881958008E0,4.140181541E0,-2.590828657E0
1.967551314E0,-7.901100159E0,4.092324734E0,-2.557329178E0
1.969676192E0,-7.910671711E0,4.087539196E0,-2.495713949E0
1.971805516E0,-7.920242786E0,4.058825493E0,-2.524427891E0
1.973929316E0,-7.987242222E0,4.058825493E0,-2.544168711E0
1.976061019E0,-7.920242786E0,3.996612072E0,-2.495713949E0
1.978182998E0,-7.881958008E0,3.949353695E0,-2.408974171E0
1.980319452E0,-7.862216949E0,3.944568157E0,-2.499303341E0
1.982429204E0,-7.905287743E0,3.905684710E0,-2.576471806E0
1.984557836E0,-7.948358536E0,3.891327858E0,-2.562713146E0
1.986679957E0,-8.001000404E0,3.881756544E0,-2.515454769E0
1.988805099E0,-8.015357971E0,3.853042603E0,-2.515454769E0
1.990920568E0,-7.977072716E0,3.800998688E0,-2.419741869E0
1.993059504E0,-8.005785942E0,3.781856298E0,-2.434098721E0
1.995185563E0,-7.986045361E0,3.733401537E0,-2.533999205E0
1.997314783E0,-8.024331093E0,3.714258909E0,-2.558525562E0
1.999437587E0,-8.024331093E0,3.699902058E0,-2.515454769E0
2.001564051E0,-8.048258781E0,3.647259951E0,-2.467598438E0
2.003691025E0,-8.076972961E0,3.642474174E0,-2.458625317E0
2.005821661E0,-8.139185905E0,3.632902861E0,-2.483151674E0
2.007937393E0,-8.200801849E0,3.617947817E0,-2.483749866E0
2.010051895E0,-8.215158463E0,3.622733593E0,-2.469991207E0
2.012173956E0,-8.210372925E0,3.570689678E0,-2.445464849E0
2.014304948E0,-8.200801849E0,3.561118364E0,-2.435893536E0
2.016446855E0,-8.224729538E0,3.536591768E0,-2.464607239E0
2.018573543E0,-8.234300613E0,3.512663603E0,-2.488535643E0
2.020698482E0,-8.262416840E0,3.503092289E0,-2.527418852E0
2.022821101E0,-8.286344528E0,3.493520975E0,-2.541775942E0
2.024943284E0,-8.319844246E0,3.498306751E0,-2.513660192E0
2.027059463E0,-8.353343964E0,3.503092289E0,-2.519043922E0
2.029198319E0,-8.363512993E0,3.536591768E0,-2.485544443E0
2.031323960E0,-8.373085022E0,3.540779352E0,-2.514258385E0
2.033453396E0,-8.392227173E0,3.550350666E0,-2.500499725E0
2.035576687E0,-8.401200294E0,3.535993576E0,-2.514856577E0
2.037701585E0,-8.429914474E0,3.531208038E0,-2.562713146E0
2.039827490E0,-8.458627701E0,3.507279873E0,-2.581855536E0
2.041952826E0,-8.482556343E0,3.487539053E0,-2.606382132E0
2.044078823E0,-8.501100540E0,3.477967739E0,-2.654238462E0
2.046203661E0,-8.515457153E0,3.473181963E0,-2.682952404E0
2.048323767E0,-8.505886078E0,3.468396425E0,-2.687737942E0
2.050445258E0,-8.510671616E0,3.492324591E0,-2.764308453E0
2.052583310E0,-8.538787842E0,3.506083488E0,-2.802593470E0
2.054709887E0,-8.534002304E0,3.534797192E0,-2.831307411E0
2.056836656E0,-8.519644737E0,3.558725595E0,-2.836092949E0
2.058959245E0,-8.534002304E0,3.573082447E0,-2.840878725E0
2.061085141E0,-8.520243645E0,3.592225075E0,-2.826521635E0
2.063211361E0,-8.524430275E0,3.601796389E0,-2.864806890E0
2.065336717E0,-8.495717049E0,3.616153240E0,-2.888136864E0
2.067463334E0,-8.495717049E0,3.611367464E0,-2.916850805E0
2.069587959E0,-8.500502586E0,3.592225075E0,-2.998206854E0
2.071701759E0,-8.495717049E0,3.577867985E0,-3.002394199E0
2.073840257E0,-8.509475708E0,3.573082447E0,-3.050848961E0
2.075965136E0,-8.533403397E0,3.577269793E0,-3.103491068E0
2.078095150E0,-8.538188934E0,3.586841106E0,-3.079562664E0
2.080219001E0,-8.542975426E0,3.610769272E0,-3.069991350E0
2.082343259E0,-8.519644737E0,3.644268990E0,-3.065205812E0
2.084469328E0,-8.519046783E0,3.672982693E0,-3.103491068E0
2.086595813E0,-8.499904633E0,3.668197155E0,-3.098107100E0
2.088717078E0,-8.495717049E0,3.677768469E0,-3.065205812E0
2.090832740E0,-8.476573944E0,3.654438496E0,-3.055036306E0
2.092971809E0,-8.443074226E0,3.640081406E0,-3.044866800E0
2.095097949E0,-8.423932076E0,3.606581926E0,-3.040081263E0
2.097227068E0,-8.385646820E0,3.563511133E0,-3.015554667E0
2.099349434E0,-8.408976555E0,3.520440340E0,-3.011367321E0
2.101475563E0,-8.385048866E0,3.497110367E0,-2.982055187E0
2.103602292E0,-8.380263329E0,3.454039574E0,-2.977269650E0
2.105726885E0,-8.361719131E0,3.458825111E0,-2.929413080E0
2.107849637E0,-8.342576027E0,3.449253798E0,-2.928814888E0
2.109962237E0,-8.342576027E0,3.458825111E0,-2.862414122E0
2.112093158E0,-8.352147102E0,3.463610888E0,-2.857628345E0
2.114230294E0,-8.333004951E0,3.478565931E0,-2.848057270E0
2.116359139E0,-8.318648338E0,3.478565931E0,-2.823530674E0
2.118484759E0,-8.323433876E0,3.473780155E0,-2.804986238E0
2.120608681E0,-8.328817368E0,3.464209080E0,-2.771486759E0
2.122734394E0,-8.324031830E0,3.435495138E0,-2.752344131E0
2.124859393E0,-8.319246292E0,3.406781197E0,-2.737987280E0
2.126984647E0,-8.347361565E0,3.382853031E0,-2.752344131E0
2.129108620E0,-8.361719131E0,3.344567776E0,-2.790629387E0
2.131226184E0,-8.390432358E0,3.311068296E0,-2.781656265E0
2.133345864E0,-8.419146538E0,3.287140131E0,-2.772084951E0
2.135472869E0,-8.413763046E0,3.253640652E0,-2.767299414E0
2.137606911E0,-8.418548584E0,3.239283562E0,-2.776870728E0
2.139743111E0,-8.432905197E0,3.215355396E0,-2.781656265E0
2.141868997E0,-8.428119659E0,3.191427231E0,-2.767299414E0
2.143993407E0,-8.452047348E0,3.176471949E0,-2.776870728E0
2.146116882E0,-8.452047348E0,3.190829039E0,-2.781656265E0
2.148242725E0,-8.456833839E0,3.177070379E0,-2.762513638E0
2.150363208E0,-8.432905197E0,3.157927752E0,-2.757728100E0
2.152473235E0,-8.437690735E0,3.153141975E0,-2.752942562E0
2.154621266E0,-8.442476273E0,3.124428272E0,-2.786442041E0
2.156741129E0,-8.441878319E0,3.086143017E0,-2.819941521E0
2.158853779E0,-8.451449394E0,3.047259569E0,-2.834298372E0
2.160984231E0,-8.479565620E0,2.989831924E0,-2.863012314E0
2.163123443E0,-8.508278847E0,2.956332445E0,-2.848655462E0
2.165254353E0,-8.522636414E0,2.922832966E0,-2.867797852E0
2.167378742E0,-8.551349640E0,2.894119024E0,-2.849253654E0
2.169501484E0,-8.580063820E0,2.860619545E0,-2.854039192E0
2.171624653E0,-8.622536659E0,2.827120066E0,-2.878565550E0
2.173740966E0,-8.651249886E0,2.850450039E0,-2.893520832E0
2.175878021E0,-8.694320679E0,2.826521635E0,-2.903092146E0
2.178003722E0,-8.694320679E0,2.793022156E0,-2.907877684E0
2.180132557E0,-8.736793518E0,2.773879766E0,-2.918047190E0
2.182255523E0,-8.741579056E0,2.788236618E0,-2.922832966E0
2.184381286E0,-8.775078773E0,2.769093990E0,-2.947359324E0
2.186507568E0,-8.779864311E0,2.759522676E0,-2.937788010E0
2.188628773E0,-8.813364029E0,2.754138947E0,-2.942573547E0
2.190735819E0,-8.818149567E0,2.754138947E0,-2.947359324E0
2.192873840E0,-8.822935104E0,2.744567633E0,-2.928216696E0
2.195010163E0,-8.822935104E0,2.711068153E0,-2.937788010E0
2.197141164E0,-8.832506180E0,2.696711063E0,-2.937788010E0
2.199264465E0,-8.879764557E0,2.663211584E0,-2.947957516E0
2.201387664E0,-8.898907661E0,2.586641312E0,-2.947957516E0
2.203513794E0,-8.922835350E0,2.548356056E0,-2.948555708E0
2.205640340E0,-8.927620888E0,2.510071039E0,-2.948555708E0
2.207762186E0,-8.927620888E0,2.500499725E0,-2.943770170E0
2.209874593E0,-8.903095245E0,2.467000246E0,-2.962314367E0
2.212002401E0,-8.874381065E0,2.433500528E0,-2.923431158E0
2.214138235E0,-8.831310272E0,2.405385017E0,-2.923431158E0
2.216271505E0,-8.759525299E0,2.367099762E0,-2.917448997E0
2.218397237E0,-8.745168686E0,2.343171597E0,-2.922234535E0
2.220521342E0,-8.754739761E0,2.352742910E0,-2.974876642E0
2.222646566E0,-8.730812073E0,2.352742910E0,-2.955136061E0
2.224771435E0,-8.678169250E0,2.343769789E0,-2.873780012E0
2.226897116E0,-8.645268440E0,2.334198475E0,-2.854039192E0
2.229022675E0,-8.611768723E0,2.343769789E0,-2.848655462E0
2.231148621E0,-8.583054543E0,2.325225353E0,-2.877369165E0
2.233273336E0,-8.529814720E0,2.291725874E0,-2.900100946E0
2.235395214E0,-8.544171333E0,2.291725874E0,-2.905484915E0
2.237526520E0,-8.606385231E0,2.319841623E0,-2.915654421E0
2.239653026E0,-8.529814720E0,2.196012974E0,-2.833101988E0
2.241779258E0,-8.185248375E0,1.887338877E0,-2.627917528E0
2.243905417E0,-8.525029182E0,2.062613010E0,-2.718246460E0
2.246035361E0,-8.729017258E0,2.208575249E0,-3.298506021E0
2.248155142E0,-8.734998703E0,2.362314224E0,-3.084348440E0
2.250281007E0,-8.775676727E0,2.573480844E0,-2.674577475E0
2.252405610E0,-8.766105652E0,2.626122952E0,-2.645863533E0
2.254528851E0,-8.819346428E0,2.626122952E0,-2.493919373E0
2.256639782E0,-8.847461700E0,2.573480844E0,-2.541775942E0
2.258769940E0,-8.885149002E0,2.458625317E0,-2.589632273E0
2.260906811E0,-8.941978455E0,2.386242390E0,-2.747558594E0
2.263026379E0,-8.907880783E0,2.347358942E0,-2.928814888E0
2.265165519E0,-8.912666321E0,2.328814745E0,-2.890529871E0
2.267287354E0,-8.927022934E0,2.333600283E0,-2.785843849E0
2.269416403E0,-8.913264275E0,2.324028969E0,-2.709273338E0
2.271539054E0,-8.937192917E0,2.319243431E0,-2.670988321E0
2.273665672E0,-8.936594009E0,2.300100803E0,-2.752344131E0
2.275787335E0,-8.922237396E0,2.304886341E0,-2.818745136E0
2.277904115E0,-8.950951576E0,2.289931297E0,-2.891128063E0
2.280043164E0,-8.941379547E0,2.285743713E0,-2.857628345E0
2.282167818E0,-8.927022934E0,2.290529490E0,-2.837887764E0
2.284296755E0,-8.941379547E0,2.314457655E0,-2.814557552E0
2.286415133E0,-8.931808472E0,2.343171597E0,-2.800200701E0
2.288529634E0,-8.956335068E0,2.380858421E0,-2.819343328E0
2.290672152E0,-8.941978455E0,2.419741869E0,-2.781058073E0
2.292796959E0,-8.913264275E0,2.438884497E0,-2.742773056E0
2.294923648E0,-8.898907661E0,2.434098721E0,-2.742773056E0
2.297035239E0,-8.856434822E0,2.434098721E0,-2.713460922E0
2.299174268E0,-8.832506180E0,2.449054003E0,-2.694318295E0
2.301299909E0,-8.822935104E0,2.434697151E0,-2.679961443E0
2.303429019E0,-8.794221878E0,2.420340061E0,-2.626721144E0
2.305551791E0,-8.779864311E0,2.405983210E0,-2.626721144E0
2.307678337E0,-8.775078773E0,2.391626120E0,-2.602792740E0
2.309803143E0,-8.760722160E0,2.377269268E0,-2.611765862E0
2.311929263E0,-8.789435387E0,2.362912416E0,-2.612364054E0
2.314054528E0,-8.808578491E0,2.348555326E0,-2.593221426E0
2.316180525E0,-8.808578491E0,2.343769789E0,-2.593221426E0
2.318306216E0,-8.827720642E0,2.324627161E0,-2.608176708E0
2.320432213E0,-8.879764557E0,2.300698996E0,-2.632104874E0
2.322558515E0,-8.884550095E0,2.291127682E0,-2.622533560E0
2.324685072E0,-8.918049812E0,2.262413740E0,-2.603989124E0
2.326810683E0,-8.913264275E0,2.228914261E0,-2.632703066E0
2.328935560E0,-8.946763992E0,2.199602127E0,-2.627917528E0
2.331060804E0,-8.932407379E0,2.171486616E0,-2.580060959E0
2.333186679E0,-8.931808472E0,2.157129526E0,-2.647060156E0
2.335313134E0,-8.922835350E0,2.128415823E0,-2.594418049E0
2.337436842E0,-8.927620888E0,2.128415823E0,-2.599203587E0
2.339554528E0,-8.946166039E0,2.099701881E0,-2.580060959E0
2.341677951E0,-8.970093727E0,2.080559254E0,-2.604587555E0
2.343815942E0,-8.960522652E0,2.066202402E0,-2.623131752E0
2.345943617E0,-8.989236832E0,2.041675806E0,-2.623729944E0
2.348070499E0,-9.008378983E0,2.051247120E0,-2.638087034E0
2.350193190E0,-8.994022369E0,2.027318954E0,-2.623729944E0
2.352319075E0,-8.989236832E0,2.027318954E0,-2.609373093E0
2.354444746E0,-9.008378983E0,2.032104731E0,-2.638087034E0
2.356570764E0,-9.008378983E0,2.008176327E0,-2.623729944E0
2.358692000E0,-8.983852386E0,1.989033818E0,-2.637488842E0
2.360796004E0,-8.979664803E0,1.980060697E0,-2.618346214E0
2.362929865E0,-8.946166039E0,1.970489502E0,-2.608774900E0
2.365073735E0,-8.941379547E0,1.946561217E0,-2.584846735E0
2.367205030E0,-8.916853905E0,1.903490424E0,-2.593819857E0
2.369330021E0,-8.907281876E0,1.889133453E0,-2.579462767E0
2.371451187E0,-8.897710800E0,1.889133453E0,-2.565105915E0
2.373577245E0,-8.897710800E0,1.861017823E0,-2.536391973E0
2.375703750E0,-8.860024452E0,1.856232166E0,-2.507079840E0
2.377828668E0,-8.840881348E0,1.861017823E0,-2.516651154E0
2.379951623E0,-8.821739197E0,1.870589137E0,-2.516052961E0
2.382068201E0,-8.821739197E0,1.870589137E0,-2.487339020E0
2.384206080E0,-8.826524734E0,1.856232166E0,-2.478366137E0
2.386327774E0,-8.821739197E0,1.856232166E0,-2.468794823E0
2.388441024E0,-8.840881348E0,1.851446509E0,-2.468794823E0
2.390566798E0,-8.840881348E0,1.837089539E0,-2.478366137E0
2.392697403E0,-8.869595528E0,1.837089539E0,-2.459223509E0
2.394840470E0,-8.869595528E0,1.808375716E0,-2.454437733E0
2.396964635E0,-8.869595528E0,1.808375716E0,-2.478366137E0
2.399089614E0,-8.874381065E0,1.803590059E0,-2.473580360E0
2.401211695E0,-8.864211082E0,1.803590059E0,-2.516651154E0
2.403337001E0,-8.878568649E0,1.784447432E0,-2.521436930E0
2.405464045E0,-8.859425545E0,1.779661894E0,-2.554936409E0
2.407590032E0,-8.845068932E0,1.774876237E0,-2.563909531E0
2.409716730E0,-8.845068932E0,1.750947952E0,-2.559123755E0
2.411841222E0,-8.868997574E0,1.746162295E0,-2.564507723E0
2.413967128E0,-8.883354187E0,1.727019787E0,-2.578864574E0
2.416092789E0,-8.877969742E0,1.722234130E0,-2.640479803E0
2.418219193E0,-8.882756233E0,1.688734531E0,-2.650051117E0
2.420344458E0,-8.901898384E0,1.707278967E0,-2.674577475E0
2.422466874E0,-8.940183640E0,1.712064624E0,-2.684148788E0
2.424583116E0,-8.935398102E0,1.721635938E0,-2.674577475E0
2.426722866E0,-8.935398102E0,1.721635938E0,-2.650649309E0
2.428847733E0,-8.925827026E0,1.721635938E0,-2.626721144E0
2.430977006E0,-8.897112846E0,1.735992789E0,-2.674577475E0
2.433098985E0,-8.940183640E0,1.750349760E0,-2.684148788E0
2.435224972E0,-8.954540253E0,1.764706731E0,-2.699103832E0
2.437350795E0,-8.968897820E0,1.783849239E0,-2.641676188E0
2.439476537E0,-8.959924698E0,1.783849239E0,-2.612962246E0
2.441604692E0,-8.973683357E0,1.788634896E0,-2.623131752E0
2.443736151E0,-9.002396584E0,1.788634896E0,-2.632703066E0
2.445850145E0,-9.007183075E0,1.759921074E0,-2.623131752E0
2.447980169E0,-9.016754150E0,1.755135417E0,-2.618346214E0
2.450103399E0,-9.031110764E0,1.745564103E0,-2.632703066E0
2.452233903E0,-9.045467377E0,1.754537225E0,-2.671586514E0
2.454363369E0,-9.050253868E0,1.754537225E0,-2.662015200E0
2.456482957E0,-9.045467377E0,1.759322882E0,-2.657229662E0
2.458609168E0,-9.059824944E0,1.768894196E0,-2.652443886E0
2.460734768E0,-9.069396019E0,1.773679733E0,-2.647658348E0
2.462865292E0,-9.055039406E0,1.788036704E0,-2.614158630E0
2.465002082E0,-9.041280746E0,1.793420553E0,-2.580659151E0
2.467114132E0,-9.007781029E0,1.798206210E0,-2.580060959E0
2.469237413E0,-9.002995491E0,1.812563181E0,-2.575275421E0
2.471359717E0,-8.993423462E0,1.802991867E0,-2.560918331E0
2.473488705E0,-8.974281311E0,1.812563181E0,-2.551347256E0
2.475615536E0,-8.979066849E0,1.817348838E0,-2.517847538E0
2.477742010E0,-8.964710236E0,1.798206210E0,-2.532204628E0
2.479866767E0,-8.916853905E0,1.712662816E0,-2.536391973E0
2.481994036E0,-8.964710236E0,1.759921074E0,-2.527418852E0
2.484124224E0,-8.979066849E0,1.755135417E0,-2.560918331E0
2.486244270E0,-8.969495773E0,1.716850281E0,-2.527418852E0
2.488369890E0,-8.959924698E0,1.674377680E0,-2.498106956E0
2.490494199E0,-8.983254433E0,1.645065546E0,-2.522633314E0
2.492621803E0,-8.978468895E0,1.626521230E0,-2.489133835E0
2.494748268E0,-8.983254433E0,1.616949916E0,-2.498705149E0
2.496873177E0,-9.002396584E0,1.630708575E0,-2.522633314E0
2.498997291E0,-9.040681839E0,1.611566067E0,-2.489732027E0
2.501116503E0,-9.035896301E0,1.597209096E0,-2.489732027E0
2.503250903E0,-9.078967094E0,1.592423439E0,-2.490330219E0
2.505376097E0,-9.112466812E0,1.558923960E0,-2.514258385E0
2.507504107E0,-9.093324661E0,1.554138303E0,-2.528615236E0
2.509628009E0,-9.102297783E0,1.530210137E0,-2.533401012E0
2.511751442E0,-9.097511292E0,1.520638824E0,-2.547159672E0
2.513863107E0,-9.049654961E0,1.506281853E0,-2.560918331E0
2.515988340E0,-9.087940216E0,1.534995675E0,-2.599801779E0
2.518117704E0,-9.097511292E0,1.534995675E0,-2.571087837E0
2.520260455E0,-9.102895737E0,1.554138303E0,-2.485544443E0
2.522386025E0,-9.016156197E0,1.525424480E0,-2.584846735E0
2.524506946E0,-9.035298347E0,1.539781332E0,-2.608774900E0
2.526612171E0,-9.059226990E0,1.544566989E0,-2.580659151E0
2.528748492E0,-9.059226990E0,1.539781332E0,-2.556730986E0
2.530886941E0,-9.040083885E0,1.515853167E0,-2.580060959E0
2.533016661E0,-9.059226990E0,1.525424480E0,-2.585444927E0
2.535140359E0,-9.083154678E0,1.496710539E0,-2.566302299E0
2.537262866E0,-9.083154678E0,1.463211060E0,-2.528017044E0
2.539388914E0,-9.068798065E0,1.472782373E0,-2.561516523E0
2.541514647E0,-9.131011009E0,1.515853167E0,-2.562114954E0
2.543640776E0,-9.093324661E0,1.506281853E0,-2.490330219E0
2.545764810E0,-9.030512810E0,1.453639746E0,-2.560918331E0
2.547882211E0,-9.126225471E0,1.520638824E0,-2.566900492E0
2.550017984E0,-9.136395454E0,1.544566989E0,-2.443071842E0
2.552143513E0,-9.031110764E0,1.511067510E0,-2.513062000E0
2.554270618E0,-9.073583603E0,1.530210137E0,-2.566302299E0
2.556390217E0,-9.083752632E0,1.549352646E0,-2.494517565E0
2.558521523E0,-9.050253868E0,1.549352646E0,-2.484946251E0
2.560647134E0,-9.035896301E0,1.549352646E0,-2.536990166E0
2.562774983E0,-9.064610481E0,1.549352646E0,-2.513660192E0
2.564898549E0,-9.064610481E0,1.544566989E0,-2.489732027E0
2.567020303E0,-9.050253868E0,1.554138303E0,-2.494517565E0
2.569129353E0,-9.074181557E0,1.568495274E0,-2.518445730E0
2.571262755E0,-9.112466812E0,1.582852125E0,-2.528615236E0
2.573401672E0,-9.122037888E0,1.582852125E0,-2.519043922E0
2.575531758E0,-9.145966530E0,1.587039590E0,-2.548356056E0
2.577655079E0,-9.169894218E0,1.587039590E0,-2.543570518E0
2.579773030E0,-9.183652878E0,1.577468276E0,-2.543570518E0
2.581904937E0,-9.183652878E0,1.572682738E0,-2.557927370E0
2.584031006E0,-9.202795982E0,1.567897081E0,-2.577668190E0
2.586159597E0,-9.178867340E0,1.543968797E0,-2.600998163E0
2.588283742E0,-9.174081802E0,1.543968797E0,-2.605783939E0
2.590388621E0,-9.188439369E0,1.539183140E0,-2.605783939E0
2.592530975E0,-9.183652878E0,1.524826288E0,-2.615355253E0
2.594658549E0,-9.174081802E0,1.505683661E0,-2.610569477E0
2.596791270E0,-9.159725189E0,1.491326690E0,-2.609971285E0
2.598912974E0,-9.178867340E0,1.491326690E0,-2.629712105E0
2.601036997E0,-9.197412491E0,1.457827210E0,-2.615355253E0
2.603162771E0,-9.202198029E0,1.462612867E0,-2.610569477E0
2.605288381E0,-9.206983566E0,1.462612867E0,-2.605783939E0
2.607414205E0,-9.235696793E0,1.457827210E0,-2.611167669E0
2.609539978E0,-9.240483284E0,1.457827210E0,-2.592025042E0
2.611666260E0,-9.245268822E0,1.448255897E0,-2.596810818E0
2.613792959E0,-9.255437851E0,1.476969719E0,-2.568096876E0
2.615917705E0,-9.212367058E0,1.448255897E0,-2.562713146E0
2.618043518E0,-9.178269386E0,1.414756417E0,-2.600399971E0
2.620168905E0,-9.192625999E0,1.419542074E0,-2.610569477E0
2.622295014E0,-9.216554642E0,1.433898926E0,-2.581855536E0
2.624420705E0,-9.226723671E0,1.433898926E0,-2.548954248E0
2.626546489E0,-9.159127235E0,1.410568953E0,-2.562114954E0
2.628668356E0,-9.144769669E0,1.424327731E0,-2.595614433E0
2.630782237E0,-9.159725189E0,1.429113269E0,-2.566900492E0
2.632923972E0,-9.140582085E0,1.429711580E0,-2.557329178E0
2.635049988E0,-9.145368576E0,1.429711580E0,-2.566900492E0
2.637179474E0,-9.145368576E0,1.438684583E0,-2.590828657E0
2.639296163E0,-9.126225471E0,1.429711580E0,-2.576471806E0
2.641403402E0,-9.150154114E0,1.439282775E0,-2.571686029E0
2.643539907E0,-9.187840462E0,1.419542074E0,-2.586641312E0
2.645678987E0,-9.216554642E0,1.429113269E0,-2.567498684E0
2.647810537E0,-9.226125717E0,1.405185103E0,-2.581855536E0
2.649929363E0,-9.273982048E0,1.414756417E0,-2.577668190E0
2.652037416E0,-9.288339615E0,1.438684583E0,-2.578266382E0
2.654173789E0,-9.264410973E0,1.405185103E0,-2.596810818E0
2.656308067E0,-9.321838379E0,1.423729420E0,-2.583052158E0
2.658437684E0,-9.326624870E0,1.409970760E0,-2.526222467E0
2.660561169E0,-9.317052841E0,1.390828133E0,-2.563909531E0
2.662685202E0,-9.332008362E0,1.433898926E0,-2.535793781E0
2.664812197E0,-9.230911255E0,1.395613790E0,-2.529811859E0
2.666938112E0,-9.240483284E0,1.429113269E0,-2.563311338E0
2.669062765E0,-9.183652878E0,1.414756417E0,-2.538784742E0
2.671184805E0,-9.159725189E0,1.439282775E0,-2.523829699E0
2.673303102E0,-9.126225471E0,1.410568953E0,-2.485544443E0
2.675447848E0,-9.116654396E0,1.458425403E0,-2.447259426E0
2.677565563E0,-9.025727272E0,1.372882009E0,-2.527418852E0
2.679694703E0,-9.107083321E0,1.453639746E0,-2.518445730E0
2.681815991E0,-9.030512810E0,1.358525038E0,-2.455634356E0
2.683943015E0,-9.097511292E0,1.434497118E0,-2.513660192E0
2.686068748E0,-9.059226990E0,1.362712502E0,-2.484348059E0
2.688194317E0,-9.078369141E0,1.424925923E0,-2.508874655E0
2.690320162E0,-9.064012527E0,1.386640668E0,-2.499303341E0
2.692445376E0,-9.111868858E0,1.439282775E0,-2.480758905E0
2.694572096E0,-9.126225471E0,1.458425403E0,-2.504687071E0
2.696697970E0,-9.145368576E0,1.496710539E0,-2.495115757E0
2.698824689E0,-9.111868858E0,1.487139225E0,-2.485544443E0
2.700949353E0,-9.049654961E0,1.458425403E0,-2.494517565E0
2.703075351E0,-9.035298347E0,1.491924882E0,-2.527418852E0
2.705200503E0,-9.011369705E0,1.467996716E0,-2.584248543E0
2.707326519E0,-7.146164894E0,6.879365444E-2,-2.798406124E0
2.709449190E0,-9.394221306E0,1.706082582E0,-2.599203587E0
2.711562055E0,-9.232706070E0,1.712064624E0,-2.310868502E0
2.713688082E0,-9.181260109E0,1.707877159E0,-2.109871387E0
2.715818617E0,-9.234500885E0,1.774876237E0,-1.862214208E0
2.717959098E0,-8.924032211E0,1.852642894E0,-1.868196249E0
2.720085035E0,-8.892327309E0,1.707877159E0,-2.598007202E0
2.722210066E0,-9.064012527E0,1.592423439E0,-2.647658348E0
2.724329633E0,-9.055637360E0,1.268195987E0,-2.011765718E0
2.726445468E0,-8.702097893E0,1.694716692E0,-2.361716032E0
2.728584627E0,-8.934800148E0,1.401595831E0,-2.502294302E0
2.730710706E0,-8.815756798E0,1.363908887E0,-2.410170555E0
2.732839491E0,-9.089137077E0,1.692921996E0,-2.442473650E0
2.734953382E0,-8.950352669E0,1.584048629E0,-2.259422779E0
2.737068270E0,-8.778069496E0,1.412363529E0,-2.276172638E0
2.739213615E0,-8.811569214E0,1.689332843E0,-2.468196630E0
2.741340274E0,-8.763712883E0,1.498505235E0,-2.324028969E0
2.743470066E0,-8.768498421E0,1.612762451E0,-2.391027927E0
2.745590845E0,-8.730812073E0,1.594218135E0,-2.276172638E0
2.747717248E0,-8.740981102E0,1.622931957E0,-2.128415823E0
2.749844058E0,-8.726624489E0,1.603789330E0,-2.113460541E0
2.751968500E0,-8.702695847E0,1.590030670E0,-2.118246317E0
2.754090214E0,-8.745766640E0,1.603789330E0,-2.085345030E0
2.756198898E0,-8.679366112E0,1.604387641E0,-1.984248161E0
2.758328037E0,-8.659625053E0,1.585245013E0,-2.098505497E0
2.760452956E0,-8.726624489E0,1.532602906E0,-2.022533417E0
2.762601851E0,-8.721838951E0,1.537388563E0,-2.022533417E0
2.764726739E0,-8.754739761E0,1.503889084E0,-2.080559254E0
2.766851282E0,-8.797810555E0,1.470389485E0,-2.028515339E0
2.768961521E0,-8.845666885E0,1.431506157E0,-2.066800594E0
2.771100784E0,-8.907880783E0,1.436291814E0,-2.010569334E0
2.773226150E0,-8.797810555E0,1.393221021E0,-2.104487419E0
2.775352625E0,-8.825327873E0,1.359123230E0,-2.338385820E0
2.777466963E0,-8.959325790E0,1.349551916E0,-2.268395901E0
2.779603662E0,-9.074181557E0,1.392024517E0,-2.255833626E0
2.781729690E0,-9.169296265E0,1.315454245E0,-2.289931297E0
2.783858942E0,-9.241081238E0,1.257428288E0,-2.357528448E0
2.785977890E0,-9.364909172E0,1.232901812E0,-2.459223509E0
2.788094202E0,-9.450452805E0,1.184447169E0,-2.498106956E0
2.790232538E0,-9.535996437E0,1.150947690E0,-2.590230465E0
2.792358800E0,-9.612566948E0,1.131206870E0,-2.595614433E0
2.794487961E0,-9.660423279E0,1.102493048E0,-2.572284460E0
2.796608841E0,-9.693922997E0,1.078564763E0,-2.600998163E0
2.798723068E0,-9.688538551E0,1.064207911E0,-2.610569477E0
2.800862961E0,-9.655039787E0,1.054636598E0,-2.633899450E0
2.802988124E0,-9.607182503E0,1.054636598E0,-2.652443886E0
2.805116918E0,-9.559326172E0,1.059422255E0,-2.651845694E0
2.807238011E0,-9.487542152E0,1.045663476E0,-2.689532757E0
2.809362167E0,-9.444471359E0,1.050449133E0,-2.708076954E0
2.811490555E0,-9.367900848E0,1.055234790E0,-2.740380049E0
2.813616308E0,-9.276973724E0,1.070189953E0,-2.758924484E0
2.815738032E0,-9.224330902E0,1.094118118E0,-2.772683144E0
2.817846034E0,-9.143573761E0,1.127617717E0,-2.781058073E0
2.819982000E0,-9.110074043E0,1.156331539E0,-2.775674343E0
2.822119776E0,-9.086145401E0,1.204187989E0,-2.804388046E0
2.824250077E0,-9.071788788E0,1.252044439E0,-2.799602509E0
2.826374091E0,-9.058030128E0,1.285543919E0,-2.813959360E0
2.828492009E0,-9.081958771E0,1.290329576E0,-2.813959360E0
2.830603185E0,-9.105288506E0,1.309472203E0,-2.848057270E0
2.832749130E0,-9.134600639E0,1.342971683E0,-2.828914642E0
2.834875260E0,-9.167501450E0,1.347757339E0,-2.853441000E0
2.837005387E0,-9.210572243E0,1.371087432E0,-2.863610506E0
2.839124395E0,-9.268000603E0,1.390229940E0,-2.878565550E0
2.841239853E0,-9.315856934E0,1.427916884E0,-2.893520832E0
2.843377467E0,-9.330213547E0,1.456630826E0,-2.931805849E0
2.845502905E0,-9.354142189E0,1.470987678E0,-2.946761131E0
2.847631964E0,-9.373284340E0,1.518844128E0,-2.965903759E0
2.849755225E0,-9.378069878E0,1.547558069E0,-2.985046148E0
2.851881934E0,-9.387641907E0,1.575673699E0,-3.018545866E0
2.854006649E0,-9.359525681E0,1.599601984E0,-3.023331404E0
2.856132514E0,-9.354740143E0,1.647458434E0,-3.018545866E0
2.858252763E0,-9.345169067E0,1.676172256E0,-3.023331404E0
2.860363766E0,-9.340383530E0,1.685743570E0,-3.023331404E0
2.862509558E0,-9.302098274E0,1.700698733E0,-3.037090063E0
2.864635413E0,-9.287740707E0,1.695913076E0,-3.056232691E0
2.866766557E0,-9.254241943E0,1.710269928E0,-3.022135019E0
2.868888261E0,-9.244669914E0,1.715055585E0,-3.050848961E0
2.871013871E0,-9.220742226E0,1.762912035E0,-3.026322365E0
2.873138750E0,-9.202198029E0,1.772483349E0,-2.992822886E0
2.875264096E0,-9.221340179E0,1.796411633E0,-2.998206854E0
2.877389909E0,-9.235696793E0,1.815554142E0,-2.974278450E0
2.879512631E0,-9.254839897E0,1.849053741E0,-2.941377163E0
2.881626126E0,-9.283554077E0,1.844268084E0,-2.931805849E0
2.883758013E0,-9.297910690E0,1.844268084E0,-2.903690338E0
2.885894366E0,-9.331410408E0,1.834696770E0,-2.884547710E0
2.888022498E0,-9.374481201E0,1.820339799E0,-2.870789051E0
2.890147539E0,-9.403194427E0,1.795813441E0,-2.890529871E0
2.892270993E0,-9.441479683E0,1.781456470E0,-2.904886723E0
2.894393419E0,-9.446265221E0,1.771885157E0,-2.885744095E0
2.896509671E0,-9.422337532E0,1.762313843E0,-2.885744095E0
2.898644742E0,-9.427123070E0,1.762313843E0,-2.890529871E0
2.900755968E0,-9.412766457E0,1.757528186E0,-2.880958557E0
2.902883594E0,-9.407979965E0,1.757528186E0,-2.900100946E0
2.905029274E0,-9.412766457E0,1.752742529E0,-2.880958557E0
2.907169207E0,-9.403194427E0,1.747956991E0,-2.890529871E0
2.909281949E0,-9.398408890E0,1.762313843E0,-2.890529871E0
2.911402830E0,-9.384052277E0,1.762313843E0,-2.899502754E0
2.913525124E0,-9.364909172E0,1.753340840E0,-2.918645382E0
2.915654905E0,-9.345767021E0,1.782054663E0,-2.908475876E0
2.917780616E0,-9.340981483E0,1.777269006E0,-2.889333248E0
2.919904498E0,-9.302696228E0,1.777269006E0,-2.879761934E0
2.922021218E0,-9.288339615E0,1.782054663E0,-2.841476917E0
2.924157702E0,-9.255437851E0,1.777867198E0,-2.812164783E0
2.926283232E0,-9.245866776E0,1.777867198E0,-2.812164783E0
2.928413155E0,-9.241081238E0,1.763510346E0,-2.778665304E0
2.930537148E0,-9.193224907E0,1.744367719E0,-2.768495798E0
2.932647754E0,-9.174081802E0,1.725225091E0,-2.791825771E0
2.934787057E0,-9.183652878E0,1.706082582E0,-2.787638426E0
2.936912423E0,-9.159725189E0,1.691725612E0,-2.796611547E0
2.939042732E0,-9.159725189E0,1.706082582E0,-2.787040234E0
2.941164284E0,-9.159725189E0,1.710868239E0,-2.782254457E0
2.943289468E0,-9.174081802E0,1.744367719E0,-2.792423964E0
2.945415282E0,-9.164510727E0,1.744367719E0,-2.782254457E0
2.947541461E0,-9.188439369E0,1.773081541E0,-2.797209740E0
2.949667010E0,-9.202795982E0,1.773081541E0,-2.773281336E0
2.951791034E0,-9.212367058E0,1.758724689E0,-2.773281336E0
2.953919829E0,-9.226723671E0,1.777867198E0,-2.749951363E0
2.956044605E0,-9.202795982E0,1.773081541E0,-2.758924484E0
2.958171212E0,-9.217152596E0,1.792224169E0,-2.745165825E0
2.960295948E0,-9.202795982E0,1.792224169E0,-2.792423964E0
2.962421945E0,-9.202795982E0,1.787438512E0,-2.816352367E0
2.964547748E0,-9.212367058E0,1.801795483E0,-2.806781054E0
2.966673593E0,-9.198010445E0,1.787438512E0,-2.816352367E0
2.968799559E0,-9.169296265E0,1.811366796E0,-2.811566591E0
2.970922983E0,-9.169296265E0,1.811366796E0,-2.801995277E0
2.973041198E0,-9.150154114E0,1.806581140E0,-2.767897606E0
2.975188140E0,-9.126823425E0,1.820937991E0,-2.767897606E0
2.977302214E0,-9.126823425E0,1.820937991E0,-2.753540754E0
2.979431416E0,-9.126823425E0,1.835294962E0,-2.753540754E0
2.981551330E0,-9.098110199E0,1.831107497E0,-2.729612350E0
2.983679901E0,-9.078967094E0,1.821536183E0,-2.738585472E0
2.985806000E0,-9.059824944E0,1.816750646E0,-2.743371248E0
2.987932484E0,-9.055039406E0,1.807179332E0,-2.757728100E0
2.990057444E0,-9.050253868E0,1.807179332E0,-2.776272535E0
2.992180114E0,-9.044869423E0,1.792822361E0,-2.776272535E0
2.994295623E0,-9.049654961E0,1.788036704E0,-2.843271494E0
2.996434855E0,-9.030512810E0,1.807179332E0,-2.833700180E0
2.998560811E0,-9.011369705E0,1.826321840E0,-2.857030153E0
3.000689453E0,-9.016156197E0,1.845464468E0,-2.867199659E0
3.002812306E0,-9.016156197E0,1.826321840E0,-2.871387243E0
3.004939046E0,-8.982656479E0,1.835893154E0,-2.847458839E0
3.007065032E0,-8.968298912E0,1.845464468E0,-2.899502754E0
3.009189758E0,-8.953942299E0,1.835893154E0,-2.889931440E0
3.011317505E0,-8.939585686E0,1.840678811E0,-2.918645382E0
3.013447591E0,-8.963513374E0,1.826321840E0,-2.952144861E0
3.015550527E0,-8.958727837E0,1.811964989E0,-2.956930637E0
3.017679840E0,-8.986844063E0,1.801795483E0,-3.019144058E0
3.019814992E0,-9.015557289E0,1.792224169E0,-3.000599623E0
3.021940806E0,-9.063413620E0,1.782652855E0,-3.010769129E0
3.024065654E0,-9.106484413E0,1.792224169E0,-3.005983353E0
3.026195730E0,-9.149555206E0,1.801197290E0,-3.006581545E0
3.028322977E0,-9.139984131E0,1.815554142E0,-3.020938635E0
3.030449148E0,-9.144769669E0,1.820339799E0,-3.068794966E0
3.032573019E0,-9.120841980E0,1.844268084E0,-3.068794966E0
3.034698802E0,-9.077771187E0,1.868794441E0,-3.058625460E0
3.036824942E0,-9.058628082E0,1.873580098E0,-3.049054146E0
3.038951640E0,-8.991629601E0,1.902294040E0,-3.057429075E0
3.041073579E0,-8.973084450E0,1.911865234E0,-3.033500910E0
3.043191092E0,-8.958727837E0,1.911865234E0,-3.038286448E0
3.045327750E0,-8.944371223E0,1.921436548E0,-3.028715372E0
3.047454163E0,-8.963513374E0,1.940579176E0,-3.019144058E0
3.049582378E0,-9.001798630E0,1.950150490E0,-3.062813044E0
3.051705272E0,-9.035298347E0,1.954936147E0,-3.034099102E0
3.053831249E0,-9.073583603E0,1.978864312E0,-3.034697294E0
3.055957887E0,-9.116654396E0,1.983051777E0,-3.040081263E0
3.058082571E0,-9.150154114E0,1.987837434E0,-3.026322365E0
3.060208721E0,-9.150154114E0,1.992623091E0,-3.035893679E0
3.062331198E0,-9.159725189E0,1.992623091E0,-3.050250769E0
3.064448254E0,-9.135796547E0,1.983051777E0,-3.059223652E0
3.066585054E0,-9.154341698E0,1.978266120E0,-3.093321562E0
3.068711590E0,-9.168698311E0,1.968694806E0,-3.098107100E0
3.070840608E0,-9.144769669E0,1.944766641E0,-3.059223652E0
3.072964713E0,-9.092127800E0,1.939980984E0,-3.072982550E0
3.075090079E0,-9.096913338E0,1.968694806E0,-3.092125177E0
3.077214804E0,-9.082556725E0,1.925624013E0,-3.092125177E0
3.079340506E0,-9.049057007E0,1.931007862E0,-3.067598581E0
3.081466666E0,-9.063413620E0,1.945364833E0,-3.063411236E0
3.083589174E0,-9.053842545E0,1.968694806E0,-3.096910715E0
3.085704897E0,-9.034700394E0,1.959721804E0,-3.086741209E0
3.087843945E0,-9.040083885E0,1.954936147E0,-3.058027267E0
3.089970644E0,-9.030512810E0,1.969292998E0,-3.053241730E0
3.092098757E0,-9.025128365E0,1.954936147E0,-3.077169895E0
3.094224408E0,-8.987442017E0,1.988435626E0,-3.053241730E0
3.096358462E0,-8.987442017E0,1.998006940E0,-3.029313564E0
3.098472841E0,-8.973084450E0,1.993221283E0,-3.019144058E0
3.100598462E0,-8.987442017E0,2.002792597E0,-2.981456995E0
3.102720654E0,-8.987442017E0,2.012363911E0,-3.010170937E0
3.104844251E0,-9.016156197E0,2.012363911E0,-3.000599623E0
3.106964062E0,-9.035298347E0,2.017149448E0,-3.025125980E0
3.109101809E0,-9.044869423E0,2.026720762E0,-3.058625460E0
3.111228599E0,-9.073583603E0,2.021337032E0,-3.092125177E0
3.113356336E0,-9.083154678E0,2.011765718E0,-3.092125177E0
3.115479017E0,-9.078369141E0,2.040479422E0,-3.096910715E0
3.117604759E0,-9.087940216E0,2.054836512E0,-3.087937593E0
3.119730807E0,-9.087940216E0,2.054836512E0,-3.125624657E0
3.121856743E0,-9.083154678E0,2.035693884E0,-3.120838881E0
3.123981855E0,-9.068798065E0,2.030908108E0,-3.106482029E0
3.126102308E0,-9.044271469E0,2.011765718E0,-3.134597778E0
3.128233919E0,-9.020342827E0,2.002194405E0,-3.134597778E0
3.130359398E0,-8.982057571E0,1.978864312E0,-3.148356438E0
3.132486860E0,-8.982057571E0,1.974078655E0,-3.114856958E0
3.134611219E0,-8.958727837E0,1.964507341E0,-3.100499868E0
3.136733717E0,-8.944371223E0,1.950150490E0,-3.090330362E0
3.138849907E0,-8.992227554E0,1.950150490E0,-3.019742250E0
3.140989942E0,-8.987442017E0,1.940579176E0,-3.000599623E0
3.143115675E0,-9.040083885E0,1.935793519E0,-3.043670416E0
3.145243981E0,-9.073583603E0,1.954936147E0,-3.025125980E0
3.147362521E0,-9.111868858E0,1.978266120E0,-3.035295486E0
3.149475212E0,-9.139984131E0,1.973480463E0,-3.092723370E0
3.151604515E0,-9.125627518E0,2.006979942E0,-3.140579700E0
3.153743645E0,-9.111269951E0,2.030908108E0,-3.154936552E0
3.155872694E0,-9.101698875E0,2.026122570E0,-3.173480988E0
3.157999087E0,-9.029914856E0,2.016551256E0,-3.187239647E0
3.160120741E0,-8.977272034E0,2.012363911E0,-3.186641455E0
3.162246993E0,-8.934201241E0,1.983649969E0,-3.214757204E0
3.164372532E0,-8.910273552E0,1.978864312E0,-3.199802160E0
3.166498672E0,-8.910273552E0,1.974078655E0,-3.209373474E0
3.168623081E0,-8.886344910E0,1.959721804E0,-3.180659533E0
3.170737939E0,-8.891130447E0,1.964507341E0,-3.185445070E0
3.172875828E0,-8.900702477E0,1.959721804E0,-3.180659533E0
3.175001825E0,-8.891130447E0,1.974078655E0,-3.171088219E0
3.177126815E0,-8.881559372E0,1.988435626E0,-3.166302681E0
3.179239892E0,-8.896514893E0,1.993221283E0,-3.128017426E0
3.181378574E0,-8.906085968E0,2.007578135E0,-3.080759048E0
3.183504398E0,-8.925228119E0,2.041077614E0,-3.085544825E0
3.185633631E0,-8.958727837E0,2.060220242E0,-3.047857761E0
3.187758112E0,-8.997611046E0,2.065006018E0,-3.024527788E0
3.189891728E0,-9.031110764E0,2.103291035E0,-2.991626501E0
3.192014124E0,-9.074181557E0,2.093719721E0,-2.963510752E0
3.194133641E0,-9.088538170E0,2.108076811E0,-2.925823927E0
3.196257482E0,-9.093324661E0,2.122433662E0,-2.940180779E0
3.198383509E0,-9.093324661E0,2.122433662E0,-2.930609465E0
3.200510788E0,-9.074181557E0,2.122433662E0,-2.958725214E0
3.202636551E0,-9.069396019E0,2.136192322E0,-2.997010469E0
3.204762354E0,-9.026325226E0,2.136790514E0,-2.996412039E0
3.206887284E0,-9.002396584E0,2.146361828E0,-2.986840963E0
3.209007095E0,-8.978468895E0,2.189432621E0,-3.038884640E0
3.211124680E0,-8.944969177E0,2.189432621E0,-3.029313564E0
3.213249629E0,-8.921041489E0,2.218146563E0,-3.052643538E0
3.215379492E0,-8.906683922E0,2.246860504E0,-3.067000389E0
3.217520634E0,-8.868997574E0,2.266003132E0,-3.066402197E0
3.219646428E0,-8.878568649E0,2.309073925E0,-3.047857761E0
3.221771978E0,-8.892925262E0,2.328216314E0,-3.067000389E0
3.223894801E0,-8.888139725E0,2.352144718E0,-3.043072224E0
3.226021276E0,-8.892925262E0,2.356930256E0,-3.023929596E0
3.228146134E0,-8.883354187E0,2.361716032E0,-3.033500910E0
3.230271754E0,-8.902496338E0,2.376072884E0,-3.033500910E0
3.232396745E0,-8.903095245E0,2.400001049E0,-3.014358282E0
3.234523646E0,-8.927022934E0,2.423929453E0,-3.019742250E0
3.236649308E0,-8.955737114E0,2.423929453E0,-2.996412039E0
3.238775274E0,-8.970093727E0,2.457428932E0,-2.986840963E0
3.240897985E0,-8.994022369E0,2.452044964E0,-2.996412039E0
3.243014787E0,-9.061020851E0,2.471187592E0,-2.992822886E0
3.245152695E0,-9.084949493E0,2.471187592E0,-2.997608662E0
3.247278651E0,-9.089735031E0,2.495115757E0,-3.021536827E0
3.249407883E0,-9.099306107E0,2.509472847E0,-3.055036306E0
3.251529995E0,-9.099306107E0,2.509472847E0,-3.055036306E0
3.253642513E0,-9.080163956E0,2.523829699E0,-3.069393158E0
3.255781429E0,-9.051449776E0,2.523829699E0,-3.078366280E0
3.257906540E0,-9.022735596E0,2.538186550E0,-3.078366280E0
3.260037329E0,-9.017950058E0,2.523829699E0,-3.068794966E0
3.262158922E0,-8.989236832E0,2.528615236E0,-3.082553864E0
3.264284776E0,-8.946166039E0,2.519043922E0,-3.086741209E0
3.266410183E0,-8.941379547E0,2.533401012E0,-3.120240688E0
3.268536220E0,-8.922237396E0,2.533401012E0,-3.096312523E0
3.270661261E0,-8.936594009E0,2.528615236E0,-3.067598581E0
3.272781287E0,-8.946166039E0,2.538186550E0,-3.063411236E0
3.274897579E0,-8.955737114E0,2.533401012E0,-3.082553864E0
3.277027573E0,-8.970093727E0,2.523829699E0,-3.072982550E0
3.279167111E0,-8.998807907E0,2.499901533E0,-3.063411236E0
3.281294522E0,-9.037093163E0,2.495115757E0,-3.035295486E0
3.283419685E0,-9.065806389E0,2.480758905E0,-3.045464993E0
3.285542416E0,-9.079565048E0,2.461616278E0,-3.055036306E0
3.287665279E0,-9.103493690E0,2.475973129E0,-3.041277647E0
3.289781114E0,-9.132207870E0,2.446661234E0,-3.046063185E0
3.291918352E0,-9.132207870E0,2.451446772E0,-3.060420275E0
3.294034401E0,-9.136993408E0,2.446661234E0,-3.060420275E0
3.296163246E0,-9.127422333E0,2.432304144E0,-3.069991350E0
3.298297533E0,-9.103493690E0,2.418545485E0,-3.064607620E0
3.300425270E0,-9.098708153E0,2.408974171E0,-3.074178934E0
3.302551877E0,-9.098708153E0,2.399402857E0,-3.088535786E0
3.304674731E0,-9.069993973E0,2.394617319E0,-3.097508907E0
3.306800738E0,-9.065208435E0,2.385046005E0,-3.126222849E0
3.308926744E0,-9.083752632E0,2.389831543E0,-3.135794163E0
3.311052589E0,-9.078967094E0,2.389233351E0,-3.169293642E0
3.313176033E0,-9.088538170E0,2.403590441E0,-3.188436270E0
3.315303709E0,-9.098110199E0,2.408375978E0,-3.212364435E0
3.317429287E0,-9.107681274E0,2.398804665E0,-3.236292601E0
3.319552478E0,-9.117252350E0,2.427518606E0,-3.241676569E0
3.321664681E0,-9.107681274E0,2.427518606E0,-3.246462107E0
3.323793791E0,-9.102895737E0,2.451446772E0,-3.246462107E0
3.325932981E0,-9.107681274E0,2.465803623E0,-3.208176851E0
3.328062853E0,-9.074779510E0,2.451446772E0,-3.188436270E0
3.330188118E0,-9.084351540E0,2.465803623E0,-3.198007345E0
3.332310311E0,-9.084351540E0,2.470589399E0,-3.174677372E0
3.334435535E0,-9.079565048E0,2.470589399E0,-3.141177893E0
3.336561491E0,-9.074779510E0,2.494517565E0,-3.155534744E0
3.338687528E0,-9.065208435E0,2.470589399E0,-3.154936552E0
3.340811684E0,-9.074779510E0,2.461018085E0,-3.140579700E0
3.342928271E0,-9.079565048E0,2.447259426E0,-3.122035265E0
3.345053556E0,-9.108279228E0,2.456232548E0,-3.136392355E0
3.347191811E0,-9.113064766E0,2.456232548E0,-3.136392355E0
3.349318612E0,-9.127422333E0,2.451446772E0,-3.127419233E0
3.351445046E0,-9.146564484E0,2.475374937E0,-3.108276606E0
3.353567585E0,-9.156135559E0,2.504088879E0,-3.103491068E0
3.355693653E0,-9.175278664E0,2.523231506E0,-3.099303484E0
3.357821806E0,-9.170493126E0,2.551945448E0,-3.108874798E0
3.359951435E0,-9.170493126E0,2.561516523E0,-3.099303484E0
3.362053740E0,-9.156135559E0,2.566302299E0,-3.127419233E0
3.364178130E0,-9.151350021E0,2.571087837E0,-3.160918713E0
3.366331471E0,-9.141778946E0,2.580659151E0,-3.156133175E0
3.368451516E0,-9.103493690E0,2.590230465E0,-3.212962627E0
3.370579629E0,-9.113064766E0,2.604587555E0,-3.208176851E0
3.372697264E0,-9.108279228E0,2.609373093E0,-3.208176851E0
3.374825856E0,-9.117850304E0,2.628515720E0,-3.213560820E0
3.376951996E0,-9.132207870E0,2.614158630E0,-3.223132133E0
3.379078470E0,-9.136993408E0,2.603989124E0,-3.275774240E0
3.381203337E0,-9.141180992E0,2.584846735E0,-3.313461065E0
3.383326527E0,-9.141180992E0,2.584846735E0,-3.327818155E0
3.385443909E0,-9.145966530E0,2.594418049E0,-3.327818155E0
3.387578918E0,-9.145966530E0,2.599203587E0,-3.323630571E0
3.389699177E0,-9.113064766E0,2.618346214E0,-3.308675528E0
3.391834930E0,-9.103493690E0,2.628515720E0,-3.241676569E0
3.393955016E0,-9.060422897E0,2.647658348E0,-3.231507063E0
3.396073517E0,-9.026923180E0,2.647658348E0,-3.217149973E0
3.398206735E0,-9.022735596E0,2.642872572E0,-3.198007345E0
3.400317057E0,-9.031708717E0,2.642872572E0,-3.207578659E0
3.402443175E0,-9.012566566E0,2.618944407E0,-3.206980467E0
3.404583679E0,-9.012566566E0,2.614158630E0,-3.211766243E0
3.406702861E0,-9.026923180E0,2.623729944E0,-3.188436270E0
3.408843882E0,-9.027522087E0,2.633301258E0,-3.174079180E0
3.410964670E0,-9.055637360E0,2.628515720E0,-3.183650494E0
3.413095255E0,-9.061020851E0,2.652443886E0,-3.155534744E0
3.415217937E0,-9.084949493E0,2.633301258E0,-3.169891834E0
3.417345265E0,-9.080163956E0,2.623729944E0,-3.174677372E0
3.419467356E0,-9.103493690E0,2.604587555E0,-3.203391314E0
3.421593251E0,-9.136993408E0,2.604587555E0,-3.199203968E0
3.423715281E0,-9.113064766E0,2.590230465E0,-3.222533941E0
3.425831991E0,-9.113064766E0,2.604587555E0,-3.222533941E0
3.427968821E0,-9.136993408E0,2.609373093E0,-3.237488985E0
3.430097595E0,-9.132207870E0,2.623729944E0,-3.237488985E0
3.432225536E0,-9.093922615E0,2.618944407E0,-3.246462107E0
3.434349173E0,-9.084351540E0,2.642872572E0,-3.260818958E0
3.436474010E0,-9.060422897E0,2.647658348E0,-3.260220766E0
3.438599914E0,-9.022137642E0,2.638087034E0,-3.269193888E0
3.440725637E0,-8.988637924E0,2.652443886E0,-3.273979664E0
3.442851197E0,-8.974281311E0,2.609373093E0,-3.254837036E0
3.444977306E0,-8.940781593E0,2.609971285E0,-3.230310678E0
3.447103831E0,-8.921639442E0,2.605185747E0,-3.235096216E0
3.449228821E0,-8.921639442E0,2.590828657E0,-3.192025423E0
3.451354880E0,-8.912068367E0,2.576471806E0,-3.182454109E0
3.453480103E0,-8.907880783E0,2.571686029E0,-3.177070379E0
3.455606080E0,-8.907880783E0,2.566900492E0,-3.172284603E0
3.457731781E0,-8.921639442E0,2.542972326E0,-3.172882795E0
3.459857565E0,-8.935996056E0,2.533401012E0,-3.148954630E0
3.461983705E0,-8.950352669E0,2.533401012E0,-3.144168854E0
3.464110323E0,-8.969495773E0,2.538186550E0,-3.149552822E0
3.466230247E0,-8.988637924E0,2.523829699E0,-3.149552822E0
3.468340211E0,-9.012566566E0,2.519043922E0,-3.149552822E0
3.470481945E0,-9.060422897E0,2.528017044E0,-3.178864956E0
3.472612367E0,-9.084351540E0,2.508874655E0,-3.189034462E0
3.474743074E0,-9.117850304E0,2.513660192E0,-3.179463148E0
3.476865073E0,-9.122636795E0,2.494517565E0,-3.160320520E0
3.478990053E0,-9.122636795E0,2.489732027E0,-3.169891834E0
3.481113822E0,-9.117850304E0,2.484946251E0,-3.179463148E0
3.483230257E0,-9.089137077E0,2.480160713E0,-3.179463148E0
3.485367443E0,-9.069993973E0,2.484946251E0,-3.207578659E0
3.487490357E0,-9.059824944E0,2.470589399E0,-3.212364435E0
3.489611319E0,-9.022137642E0,2.480758905E0,-3.140579700E0
3.491741721E0,-8.974281311E0,2.485544443E0,-3.159124136E0
3.493870455E0,-8.950352669E0,2.471187592E0,-3.139383316E0
3.495999168E0,-8.912068367E0,2.471785784E0,-3.096312523E0
3.498123597E0,-8.883354187E0,2.467000246E0,-3.100499868E0
3.500247804E0,-8.831310272E0,2.467000246E0,-3.095116138E0
3.502373446E0,-8.830712318E0,2.481357098E0,-3.123830080E0
3.504499107E0,-8.821739197E0,2.495713949E0,-3.052045345E0
3.506625084E0,-8.778668404E0,2.510669231E0,-3.046661377E0
3.508747682E0,-8.783453941E0,2.533999205E0,-3.061018467E0
3.510863527E0,-8.774480820E0,2.539382935E0,-2.994617462E0
3.512999545E0,-8.740981102E0,2.548954248E0,-3.013161898E0
3.515113100E0,-8.750552177E0,2.572882652E0,-3.013161898E0
3.517244600E0,-8.764909744E0,2.587239504E0,-2.961117983E0
3.519380231E0,-8.750552177E0,2.596810818E0,-2.979662418E0
3.521508649E0,-8.755337715E0,2.596810818E0,-2.974876642E0
3.523634860E0,-8.764909744E0,2.577668190E0,-2.961117983E0
3.525753909E0,-8.788837433E0,2.563311338E0,-2.975475073E0
3.527869194E0,-8.803194046E0,2.581855536E0,-2.994617462E0
3.530006106E0,-8.831908226E0,2.577069998E0,-3.019144058E0
3.532135573E0,-8.845666885E0,2.572284460E0,-3.033500910E0
3.534263635E0,-8.846264839E0,2.572284460E0,-3.019144058E0
3.536384891E0,-8.864809990E0,2.557927370E0,-3.023929596E0
3.538502006E0,-8.860024452E0,2.557927370E0,-3.057429075E0
3.540637932E0,-8.855237961E0,2.572284460E0,-3.047857761E0
3.542763614E0,-8.869595528E0,2.577069998E0,-3.047857761E0
3.544891819E0,-8.855836868E0,2.581855536E0,-3.023929596E0
3.547015454E0,-8.846264839E0,2.572284460E0,-3.000001431E0
3.549142184E0,-8.841479301E0,2.586641312E0,-2.976073265E0
3.551267826E0,-8.851051331E0,2.562713146E0,-2.995215654E0
3.553392856E0,-8.870193481E0,2.557927370E0,-2.990430117E0
3.555518111E0,-8.883952141E0,2.533999205E0,-2.981456995E0
3.557643904E0,-8.855836868E0,2.533999205E0,-2.971287489E0
3.559767551E0,-8.870193481E0,2.533999205E0,-2.971287489E0
3.561886874E0,-8.874979019E0,2.548356056E0,-2.971885681E0
3.564022057E0,-8.836693764E0,2.548356056E0,-2.942573547E0
3.566148350E0,-8.807980537E0,2.553740025E0,-2.946761131E0
3.568275466E0,-8.764909744E0,2.582453728E0,-2.918047190E0
3.570399143E0,-8.741579056E0,2.582453728E0,-2.883949518E0
3.572524448E0,-8.722436905E0,2.587239504E0,-2.874378204E0
3.574650466E0,-8.717052460E0,2.558525562E0,-2.883949518E0
3.576776321E0,-8.722436905E0,2.563311338E0,-2.869592667E0
3.578899977E0,-8.736195564E0,2.539382935E0,-2.860021353E0
3.581018019E0,-8.745766640E0,2.544168711E0,-2.874976397E0
3.583154779E0,-8.764909744E0,2.539382935E0,-2.884547710E0
3.585279546E0,-8.788837433E0,2.544168711E0,-2.894119024E0
3.587404779E0,-8.831908226E0,2.548954248E0,-2.889931440E0
3.589517725E0,-8.841479301E0,2.567498684E0,-2.928216696E0
3.591657007E0,-8.855836868E0,2.596212626E0,-2.933600664E0
3.593782607E0,-8.855836868E0,2.610569477E0,-2.952743053E0
3.595911707E0,-8.870193481E0,2.653640270E0,-2.947957516E0
3.598034499E0,-8.870193481E0,2.677568436E0,-2.947957516E0
3.600162104E0,-8.856434822E0,2.677568436E0,-2.909672260E0
3.602287145E0,-8.851649284E0,2.706282377E0,-2.904886723E0
3.604398676E0,-8.842078209E0,2.687139750E0,-2.914458036E0
3.606537166E0,-8.818149567E0,2.692523718E0,-2.889931440E0
3.608661910E0,-8.794221878E0,2.682952404E0,-2.870789051E0
3.610792210E0,-8.789435387E0,2.649452925E0,-2.870789051E0
3.612914810E0,-8.760722160E0,2.630310297E0,-2.884547710E0
3.615041092E0,-8.755936623E0,2.601596355E0,-2.870190859E0
3.617167597E0,-8.746364594E0,2.582453728E0,-2.855833769E0
3.619293391E0,-8.746364594E0,2.563311338E0,-2.855833769E0
3.621418401E0,-8.751151085E0,2.553740025E0,-2.831905603E0
3.623543493E0,-8.755936623E0,2.548954248E0,-2.836691141E0
3.625669205E0,-8.775078773E0,2.563311338E0,-2.822334290E0
3.627794489E0,-8.789435387E0,2.577668190E0,-2.799004316E0
3.629918299E0,-8.779864311E0,2.568096876E0,-2.789433002E0
3.632047399E0,-8.784649849E0,2.582453728E0,-2.794218540E0
3.634173926E0,-8.799007416E0,2.596810818E0,-2.794218540E0
3.636299353E0,-8.789435387E0,2.572882652E0,-2.799004316E0
3.638424607E0,-8.789435387E0,2.572882652E0,-2.808575630E0
3.640546524E0,-8.775078773E0,2.582453728E0,-2.836691141E0
3.642662867E0,-8.784649849E0,2.563311338E0,-2.841476917E0
3.644801866E0,-8.794221878E0,2.563311338E0,-2.861217737E0
3.646927415E0,-8.794221878E0,2.572882652E0,-2.866003275E0
3.649054398E0,-8.779266357E0,2.572882652E0,-2.884547710E0
3.651168575E0,-8.774480820E0,2.553740025E0,-2.879761934E0
3.653297399E0,-8.769695282E0,2.553740025E0,-2.889333248E0
3.655430396E0,-8.750552177E0,2.539382935E0,-2.874976397E0
3.657558640E0,-8.741579056E0,2.553740025E0,-2.855833769E0
3.659684261E0,-8.736793518E0,2.558525562E0,-2.864806890E0
3.661808518E0,-8.722436905E0,2.548954248E0,-2.869592667E0
3.663930589E0,-8.698508263E0,2.554338217E0,-2.855235577E0
3.666047359E0,-8.698508263E0,2.554338217E0,-2.850450039E0
3.668186296E0,-8.688937187E0,2.568695068E0,-2.826521635E0
3.670314510E0,-8.727222443E0,2.559123755E0,-2.836092949E0
3.672453254E0,-8.732007980E0,2.549552441E0,-2.822334290E0
3.674562588E0,-8.722436905E0,2.535195589E0,-2.845664263E0
3.676688595E0,-8.722436905E0,2.530410051E0,-2.840878725E0
3.678811031E0,-8.732007980E0,2.520838737E0,-2.840878725E0
3.680940069E0,-8.722436905E0,2.530410051E0,-2.855235577E0
3.683066261E0,-8.745766640E0,2.520240545E0,-2.846262455E0
3.685193081E0,-8.741579056E0,2.534597397E0,-2.860021353E0
3.687318742E0,-8.760123253E0,2.534597397E0,-2.860619545E0
3.689443610E0,-8.765507698E0,2.558525562E0,-2.846262455E0
3.691565478E0,-8.760722160E0,2.572882652E0,-2.860619545E0
3.693677762E0,-8.746364594E0,2.582453728E0,-2.865405083E0
3.695808153E0,-8.727222443E0,2.611167669E0,-2.893520832E0
3.697946458E0,-8.727222443E0,2.635095835E0,-2.922234535E0
3.700076046E0,-8.727222443E0,2.644667149E0,-2.941377163E0
3.702200263E0,-8.732007980E0,2.644667149E0,-2.931805849E0
3.704316108E0,-8.755936623E0,2.663809776E0,-2.956332445E0
3.706449877E0,-8.755936623E0,2.682952404E0,-2.956332445E0
3.708575273E0,-8.789435387E0,2.696711063E0,-2.989831924E0
3.710703234E0,-8.803792953E0,2.706282377E0,-2.966501951E0
3.712823819E0,-8.822935104E0,2.725425005E0,-3.000001431E0
3.714936592E0,-8.842078209E0,2.778067112E0,-2.981456995E0
3.717062619E0,-8.856434822E0,2.782852650E0,-2.976671457E0
3.719192553E0,-8.846863747E0,2.821137905E0,-2.986242771E0
3.721333757E0,-8.837292671E0,2.840280533E0,-3.014956474E0
3.723459592E0,-8.827720642E0,2.859423161E0,-3.005385160E0
3.725585081E0,-8.832506180E0,2.888136864E0,-2.995813847E0
3.727707639E0,-8.822935104E0,2.897708178E0,-3.005385160E0
3.729833473E0,-8.813961983E0,2.892922640E0,-2.991028309E0
3.731961973E0,-8.789435387E0,2.878565550E0,-3.014358282E0
3.734093432E0,-8.799007416E0,2.878565550E0,-2.990430117E0
3.736206317E0,-8.808578491E0,2.873780012E0,-3.000001431E0
3.738336616E0,-8.866005898E0,2.883351326E0,-3.005385160E0
3.740460365E0,-8.928219795E0,2.882753134E0,-3.006581545E0
3.742589476E0,-8.952147484E0,2.873181820E0,-2.992224693E0
3.744711038E0,-9.004789352E0,2.882753134E0,-3.007179976E0
3.746826577E0,-9.038289070E0,2.901895761E0,-3.007778168E0
3.748965533E0,-9.071788788E0,2.906083107E0,-3.013161898E0
3.751091571E0,-9.062217712E0,2.934797049E0,-3.017349243E0
3.753219216E0,-9.062217712E0,2.944368362E0,-3.002992392E0
3.755333963E0,-9.047860146E0,2.930011272E0,-3.002992392E0
3.757468758E0,-9.004789352E0,2.968894720E0,-3.002394199E0
3.759594318E0,-8.947361946E0,2.959323406E0,-3.001796007E0
3.761722604E0,-8.919246674E0,2.954537868E0,-2.997010469E0
3.763846149E0,-8.880961418E0,2.954537868E0,-2.982055187E0
3.765970000E0,-8.847461700E0,2.955136061E0,-2.981456995E0
3.768090411E0,-8.823533058E0,2.955136061E0,-3.000599623E0
3.770224455E0,-8.833105087E0,2.950350285E0,-2.976671457E0
3.772349404E0,-8.842676163E0,2.974278450E0,-2.995813847E0
3.774476195E0,-8.837890625E0,2.974278450E0,-2.986242771E0
3.776596485E0,-8.866603851E0,2.969492912E0,-2.972483873E0
3.778724079E0,-8.861818314E0,2.983849764E0,-2.958127022E0
3.780842141E0,-8.866603851E0,2.969492912E0,-2.948555708E0
3.782979298E0,-8.909674644E0,2.964108944E0,-2.968296528E0
3.785104390E0,-8.890532494E0,2.955136061E0,-2.938984394E0
3.787233458E0,-8.909674644E0,2.959323406E0,-2.949153900E0
3.789355926E0,-8.885746956E0,2.955136061E0,-2.915056229E0
3.791481739E0,-8.866603851E0,2.950350285E0,-2.919841766E0
3.793607035E0,-8.852247238E0,2.959921598E0,-2.900699139E0
3.795728505E0,-8.837890625E0,2.969492912E0,-2.910270452E0
3.797841277E0,-8.837890625E0,2.979064226E0,-2.905484915E0
3.799984557E0,-8.828319550E0,2.974278450E0,-2.928814888E0
3.802110636E0,-8.837890625E0,2.983849764E0,-2.928814888E0
3.804241556E0,-8.866603851E0,2.998206854E0,-2.924627542E0
3.806362061E0,-8.885746956E0,2.997608662E0,-2.948555708E0
3.808488056E0,-8.914461136E0,3.011965513E0,-2.925225735E0
3.810613321E0,-8.957531929E0,3.007179976E0,-2.944966555E0
3.812739359E0,-8.976674080E0,2.988037348E0,-2.964108944E0
3.814865122E0,-9.024530411E0,2.968894720E0,-2.979064226E0
3.816986246E0,-9.014361382E0,2.949752092E0,-3.016751051E0
3.819095855E0,-9.043074608E0,2.925225735E0,-3.022135019E0
3.821233582E0,-9.047860146E0,2.930011272E0,-3.022135019E0
3.823369467E0,-9.033503532E0,2.934797049E0,-3.007778168E0
3.825499095E0,-9.024530411E0,2.954537868E0,-2.979064226E0
3.827622710E0,-9.019744873E0,2.959323406E0,-2.964707375E0
3.829745982E0,-9.000602722E0,2.973680258E0,-2.964707375E0
3.831868999E0,-8.986245155E0,3.011965513E0,-2.944966555E0
3.833986410E0,-8.995817184E0,3.002394199E0,-2.916850805E0
3.836120545E0,-8.976674080E0,3.007179976E0,-2.906681299E0
3.838239094E0,-8.962915421E0,3.007179976E0,-2.882753134E0
3.840377502E0,-8.953344345E0,3.026322365E0,-2.854039192E0
3.842500794E0,-8.943773270E0,3.016751051E0,-2.839682341E0
3.844629019E0,-8.938986778E0,3.012563705E0,-2.830111027E0
3.846753266E0,-8.924630165E0,3.002992392E0,-2.815753937E0
3.848878316E0,-8.915059090E0,2.983849764E0,-2.806182861E0
3.851003642E0,-8.924630165E0,2.993421078E0,-2.796611547E0
3.853129334E0,-8.924630165E0,2.998206854E0,-2.763111830E0
3.855256054E0,-8.924630165E0,3.007778168E0,-2.739183664E0
3.857378521E0,-8.900702477E0,2.993421078E0,-2.748754978E0
3.859497031E0,-8.910871506E0,3.012563705E0,-2.729612350E0
3.861632559E0,-8.886942863E0,3.041277647E0,-2.743969440E0
3.863758333E0,-8.805587769E0,3.003590584E0,-2.728415966E0
3.865884655E0,-8.868398666E0,3.160918713E0,-2.681756020E0
3.867998444E0,-8.729615211E0,3.128017426E0,-2.660818815E0
3.870123048E0,-8.686544418E0,3.180659533E0,-2.727219582E0
3.872262747E0,-8.643473625E0,3.152543783E0,-2.650649309E0
3.874389528E0,-8.595617294E0,3.157329559E0,-2.687737942E0
3.876516614E0,-8.571688652E0,3.142972469E0,-2.702095032E0
3.878638642E0,-8.538188934E0,3.157329559E0,-2.648854733E0
3.880764771E0,-8.552546501E0,3.157329559E0,-2.644667149E0
3.882890474E0,-8.499904633E0,2.961716175E0,-2.586043119E0
3.885016227E0,-8.456833839E0,3.124428272E0,-2.715255499E0
3.887139161E0,-8.458627701E0,3.116053343E0,-2.146960020E0
3.889252869E0,-8.451449394E0,3.142972469E0,-2.834298372E0
3.891381858E0,-8.738588333E0,3.175873756E0,-2.794816732E0
3.893519889E0,-8.568697929E0,3.191427231E0,-2.325225353E0
3.895648277E0,-8.494520187E0,3.028715372E0,-2.729612350E0
3.897774039E0,-8.850452423E0,3.352942705E0,-2.529213428E0
3.899893495E0,-8.452047348E0,3.090928555E0,-2.614757061E0
3.902009636E0,-8.643473625E0,3.195614576E0,-2.665006161E0
3.904148765E0,-8.529216766E0,3.191427231E0,-2.544168711E0
3.906272321E0,-8.490931511E0,3.196212769E0,-2.663211584E0
3.908392030E0,-8.476573944E0,3.205784082E0,-2.548356056E0
3.910525636E0,-8.458029747E0,3.205784082E0,-2.495713949E0
3.912651766E0,-8.467002869E0,3.186641455E0,-2.590828657E0
3.914790103E0,-8.428717613E0,3.181855917E0,-2.538186550E0
3.916903364E0,-8.443074226E0,3.162713289E0,-2.600399971E0
3.919029502E0,-8.462217331E0,3.162713289E0,-2.605185747E0
3.921152600E0,-8.452646255E0,3.148356438E0,-2.619542599E0
3.923281527E0,-8.476573944E0,3.157927752E0,-2.614757061E0
3.925406497E0,-8.534002304E0,3.162713289E0,-2.577668190E0
3.927532616E0,-8.534002304E0,3.153141975E0,-2.568096876E0
3.929657768E0,-8.514859200E0,3.162713289E0,-2.544168711E0
3.931783806E0,-8.495717049E0,3.191427231E0,-2.529213428E0
3.933909569E0,-8.481359482E0,3.200998545E0,-2.548356056E0
3.936033379E0,-8.434102058E0,3.215355396E0,-2.542972326E0
3.938153007E0,-8.386244774E0,3.220739365E0,-2.551945448E0
3.940288088E0,-8.357531548E0,3.244667530E0,-2.547159672E0
3.942412743E0,-8.347960472E0,3.249453068E0,-2.542374134E0
3.944540652E0,-8.324031830E0,3.249453068E0,-2.551347256E0
3.946664015E0,-8.290532112E0,3.263810158E0,-2.522633314E0
3.948790032E0,-8.261817932E0,3.268595695E0,-2.522035122E0
3.950915856E0,-8.223533630E0,3.293122053E0,-2.516651154E0
3.953041752E0,-8.209774017E0,3.302693367E0,-2.516651154E0
3.955168044E0,-8.204988480E0,3.312264681E0,-2.473580360E0
3.957294548E0,-8.190631866E0,3.297907829E0,-2.487937450E0
3.959423261E0,-8.219346046E0,3.317050457E0,-2.469393015E0
3.961554141E0,-8.219346046E0,3.307479143E0,-2.459821701E0
3.963656508E0,-8.209774017E0,3.307479143E0,-2.459223509E0
3.965793329E0,-8.238488197E0,3.331407309E0,-2.459821701E0
3.967919203E0,-8.238488197E0,3.340978622E0,-2.478964329E0
3.970051293E0,-8.243273735E0,3.331407309E0,-2.469393015E0
3.972174859E0,-8.262416840E0,3.345165968E0,-2.483749866E0
3.974300582E0,-8.271987915E0,3.345165968E0,-2.474776745E0
3.976425430E0,-8.262416840E0,3.373879910E0,-2.479562521E0
3.978549788E0,-8.281558990E0,3.378665686E0,-2.503490686E0
3.980669051E0,-8.291130066E0,3.416950703E0,-2.479562521E0
3.982798954E0,-8.291130066E0,3.455235958E0,-2.493919373E0
3.984928451E0,-8.301300049E0,3.464807272E0,-2.475374937E0
3.987056247E0,-8.291728973E0,3.498306751E0,-2.480160713E0
3.989181502E0,-8.282156944E0,3.507878065E0,-2.479562521E0
3.991307092E0,-8.282156944E0,3.517449379E0,-2.493919373E0
3.993431747E0,-8.263014793E0,3.536591768E0,-2.541775942E0
3.995557571E0,-8.243273735E0,3.555734396E0,-2.579462767E0
3.997683079E0,-8.228917122E0,3.560520172E0,-2.603390932E0
3.999808740E0,-8.210372925E0,3.579662561E0,-2.584248543E0
4.001933517E0,-8.205587387E0,3.584448338E0,-2.569891453E0
4.004060785E0,-8.176873207E0,3.565305710E0,-2.545365095E0
4.006187047E0,-8.181658745E0,3.589233875E0,-2.545365095E0
4.008313705E0,-8.157731056E0,3.565305710E0,-2.593221426E0
4.010434941E0,-8.148159027E0,3.574877024E0,-2.593221426E0
4.012547541E0,-8.129016876E0,3.574877024E0,-2.606980324E0
4.014673294E0,-8.143373489E0,3.589233875E0,-2.574079037E0
4.016802679E0,-8.133802414E0,3.599403381E0,-2.545365095E0
4.018944991E0,-8.143373489E0,3.628117323E0,-2.516651154E0
4.021066960E0,-8.110472679E0,3.656831264E0,-2.525624275E0
4.023180516E0,-8.115258217E0,3.680759430E0,-2.487937450E0
4.025308700E0,-8.081758499E0,3.714258909E0,-2.496910334E0
4.027445765E0,-8.086544037E0,3.728615999E0,-2.468196630E0
4.029574041E0,-8.063214302E0,3.766901016E0,-2.449054003E0
4.031695786E0,-8.058428764E0,3.771686792E0,-2.449054003E0
4.033810369E0,-8.039285660E0,3.790829182E0,-2.463410854E0
4.035947719E0,-8.039285660E0,3.795614958E0,-2.458625317E0
4.038073400E0,-8.048856735E0,3.805186272E0,-2.420340061E0
4.040202987E0,-8.039285660E0,3.805186272E0,-2.420340061E0
4.042328008E0,-8.039285660E0,3.819543123E0,-2.391626120E0
4.044446589E0,-8.059026718E0,3.819543123E0,-2.349153519E0
4.046576605E0,-8.054241180E0,3.848257065E0,-2.339582443E0
4.048701350E0,-8.059026718E0,3.857828379E0,-2.353939295E0
4.050829280E0,-8.030312538E0,3.891327858E0,-2.362912416E0
4.052953965E0,-8.025527000E0,3.915256023E0,-2.367697954E0
4.055079707E0,-7.992027760E0,3.930211306E0,-2.353341103E0
4.057206009E0,-7.987242222E0,3.944568157E0,-2.353341103E0
4.059332281E0,-7.968099594E0,3.954139471E0,-2.362314224E0
4.061457149E0,-7.944170952E0,3.958925009E0,-2.391027927E0
4.063582841E0,-7.944170952E0,3.949353695E0,-2.381456852E0
4.065708492E0,-7.934599876E0,3.968496323E0,-2.386242390E0
4.067834559E0,-7.939385414E0,3.949353695E0,-2.381456852E0
4.069960271E0,-7.920242786E0,3.963710785E0,-2.443071842E0
4.072086106E0,-7.929814339E0,3.978067636E0,-2.447857618E0
4.074208798E0,-7.934599876E0,3.978067636E0,-2.457428932E0
4.076325537E0,-7.968099594E0,3.991826296E0,-2.472383976E0
4.078463496E0,-7.963313580E0,4.010969162E0,-2.481955290E0
4.080589555E0,-7.992027760E0,4.034897327E0,-2.520240545E0
4.082721483E0,-8.001599312E0,4.063611031E0,-2.520838737E0
4.084854235E0,-8.001599312E0,4.092324734E0,-2.520838737E0
4.086966569E0,-7.972885132E0,4.111467361E0,-2.520240545E0
4.089092383E0,-7.972885132E0,4.154538155E0,-2.534597397E0
4.091215186E0,-7.949554920E0,4.211966038E0,-2.534597397E0
4.093345303E0,-7.916055679E0,4.250251293E0,-2.538784742E0
4.095470984E0,-7.892127514E0,4.317250252E0,-2.529213428E0
4.097595791E0,-7.840083599E0,4.345963955E0,-2.523829699E0
4.099721147E0,-7.820940971E0,4.393820763E0,-2.528615236E0
4.101846870E0,-7.778468132E0,4.456632137E0,-2.499901533E0
4.103972104E0,-7.754539967E0,4.504488468E0,-2.452044964E0
4.106098091E0,-7.721638680E0,4.518845558E0,-2.384447813E0
4.108235612E0,-7.716853142E0,4.537988186E0,-2.350948334E0
4.110351304E0,-7.712067604E0,4.585844517E0,-2.332403898E0
4.112477139E0,-7.692924976E0,4.576871395E0,-2.312663078E0
4.114599586E0,-7.693522930E0,4.586442947E0,-2.303091764E0
4.116727578E0,-7.664809227E0,4.615156651E0,-2.293520451E0
4.118853563E0,-7.693522930E0,4.615156651E0,-2.322234392E0
4.120979357E0,-7.698308468E0,4.624728203E0,-2.336591244E0
4.123105496E0,-7.698308468E0,4.624129772E0,-2.346162558E0
4.125227994E0,-7.712067604E0,4.643272400E0,-2.375474691E0
4.127344662E0,-7.750352383E0,4.686343193E0,-2.413759947E0
4.129482510E0,-7.746165276E0,4.705485821E0,-2.399402857E0
4.131608599E0,-7.727022648E0,4.700700283E0,-2.394617319E0
4.133737119E0,-7.731808186E0,4.724628448E0,-2.365903378E0
4.135860146E0,-7.722237110E0,4.729413986E0,-2.370688915E0
4.137986691E0,-7.688737392E0,4.738985062E0,-2.370090723E0
4.140111549E0,-7.679165840E0,4.743771076E0,-2.398804665E0
4.142237527E0,-7.660023689E0,4.762913704E0,-2.384447813E0
4.144365324E0,-7.655237675E0,4.762913704E0,-2.389233351E0
4.146493539E0,-7.616952896E0,4.763511658E0,-2.393420935E0
4.148608507E0,-7.626523972E0,4.782055855E0,-2.398206472E0
4.150740232E0,-7.616952896E0,4.801198483E0,-2.422134638E0
4.152864602E0,-7.612166882E0,4.805984497E0,-2.431705952E0
4.154993600E0,-7.616952896E0,4.834698200E0,-2.398206472E0
4.157117714E0,-7.593622684E0,4.835296154E0,-2.364706993E0
4.159240660E0,-7.593622684E0,4.830510616E0,-2.364706993E0
4.161357898E0,-7.564908981E0,4.840082169E0,-2.344966173E0
4.163496540E0,-7.584051132E0,4.830510616E0,-2.364706993E0
4.165621306E0,-7.593622684E0,4.820939541E0,-2.379063845E0
4.167749693E0,-7.612166882E0,4.806582451E0,-2.379063845E0
4.169872373E0,-7.660023689E0,4.810770035E0,-2.360519648E0
4.171998371E0,-7.669594765E0,4.815555573E0,-2.389233351E0
4.174124114E0,-7.664809227E0,4.825126648E0,-2.398804665E0
4.176250243E0,-7.646264553E0,4.868197441E0,-2.398804665E0
4.178376707E0,-7.603193760E0,4.901697159E0,-2.398206472E0
4.180501657E0,-7.564908981E0,4.935794830E0,-2.374278307E0
4.182627572E0,-7.522436142E0,4.988437176E0,-2.335394859E0
4.184752725E0,-7.479365349E0,5.021936417E0,-2.297109842E0
4.186874297E0,-7.417750359E0,5.070391178E0,-2.253440619E0
4.188986560E0,-7.398607731E0,5.079962254E0,-2.196012974E0
4.191130868E0,-7.346563816E0,5.103890896E0,-2.181057930E0
4.193256580E0,-7.346563816E0,5.127819061E0,-2.185843468E0
4.195387756E0,-7.308278561E0,5.147559643E0,-2.166102648E0
4.197507933E0,-7.289135933E0,5.152345181E0,-2.161317110E0
4.199630706E0,-7.289135933E0,5.176273346E0,-2.166102648E0
4.201746276E0,-7.313064098E0,5.200201988E0,-2.152343988E0
4.203885233E0,-7.332206726E0,5.252245903E0,-2.185843468E0
4.206011047E0,-7.389634609E0,5.280959606E0,-2.229512453E0
4.208136728E0,-7.423133850E0,5.313860893E0,-2.287538528E0
4.210247151E0,-7.490133286E0,5.385645390E0,-2.307279348E0
4.212378875E0,-7.466204643E0,5.390431404E0,-2.316252232E0
4.214511027E0,-7.173682213E0,5.228915691E0,-2.379662037E0
4.216627055E0,-7.509275436E0,5.389832973E0,-2.364706993E0
4.218756897E0,-7.796414375E0,5.642275810E0,-2.507079840E0
4.220898183E0,-7.604390144E0,5.465805054E0,-2.532802820E0
4.223020711E0,-7.599604607E0,5.489733219E0,-2.490330219E0
4.225146362E0,-7.613961697E0,5.537590027E0,-2.571686029E0
4.227267598E0,-7.580461979E0,5.523232937E0,-2.652443886E0
4.229392394E0,-7.432106972E0,5.456831932E0,-2.607578516E0
4.231507263E0,-7.427321434E0,5.504688263E0,-2.641077995E0
4.233647400E0,-7.019345284E0,5.128417015E0,-2.706880569E0
4.235771709E0,-5.706882000E0,4.195814610E0,-2.594418049E0
4.237901255E0,-5.708078384E0,4.607379913E0,-2.618944407E0
4.240020274E0,-6.283552170E0,5.331208706E0,-2.822932482E0
4.242133352E0,-6.720840454E0,5.999404430E0,-2.733799934E0
4.244262543E0,-6.894320011E0,6.491129398E0,-2.760719061E0
4.246402120E0,-6.355337143E0,7.009175777E0,-2.884547710E0
4.248528616E0,-4.347160339E0,7.145566463E0,-3.095116138E0
4.250649689E0,-4.426123619E0,6.217749596E0,-2.907877684E0
4.252778422E0,-5.051846981E0,5.904888153E0,-2.728415966E0
4.254904318E0,-5.765506268E0,5.864808083E0,-2.383849621E0
4.257031698E0,-6.470790863E0,5.988038540E0,-1.866999865E0
4.259155813E0,-7.031907558E0,6.182455540E0,-1.544566989E0
4.261282044E0,-7.667799950E0,6.347560406E0,-1.619342685E0
4.263408489E0,-8.055437088E0,6.518048763E0,-1.767099500E0
4.265533479E0,-8.370093346E0,6.578467846E0,-1.928615093E0
4.267659333E0,-8.508278847E0,6.549155712E0,-2.087737799E0
4.269784587E0,-8.498109818E0,6.519843578E0,-2.288136721E0
4.271910564E0,-8.539983749E0,6.504888535E0,-2.498106956E0
4.274036428E0,-8.568099976E0,6.437291145E0,-2.665604353E0
4.276162355E0,-8.567501068E0,6.365506649E0,-2.818146944E0
4.278288372E0,-8.504690170E0,6.332006931E0,-2.946162939E0
4.280414816E0,-8.485547066E0,6.274579048E0,-2.955136061E0
4.282536958E0,-8.437092781E0,6.241079807E0,-2.940778971E0
4.284651460E0,-8.332406998E0,6.217749596E0,-2.915056229E0
4.286777956E0,-8.217551231E0,6.189633846E0,-2.904288530E0
4.288913667E0,-8.093124390E0,6.142375946E0,-2.864806890E0
4.291029471E0,-7.939983845E0,6.133402824E0,-2.877369165E0
4.293156689E0,-7.786843300E0,6.110072613E0,-2.837289333E0
4.295281516E0,-7.653443336E0,6.077171326E0,-2.773281336E0
4.297424602E0,-7.453044415E0,6.077769279E0,-2.733201742E0
4.299550050E0,-7.208976269E0,6.016752720E0,-2.739781857E0
4.301675285E0,-7.219145775E0,6.122036934E0,-2.596810818E0
4.303797284E0,-7.128817081E0,6.103492260E0,-2.495115757E0
4.305923088E0,-7.048058987E0,6.108876228E0,-2.351546526E0
4.308048982E0,-6.942774773E0,6.075974941E0,-2.230708838E0
4.310174766E0,-6.866204739E0,6.076572895E0,-2.224726915E0
4.312297711E0,-6.823731899E0,6.110072613E0,-2.224726915E0
4.314413393E0,-6.780661106E0,6.138786316E0,-2.185843468E0
4.316548668E0,-6.766902447E0,6.177670002E0,-2.157129526E0
4.318678489E0,-6.776473522E0,6.239883423E0,-2.095514536E0
4.320806968E0,-6.729215622E0,6.259026051E0,-1.999203324E0
4.322930696E0,-6.676573277E0,6.283552170E0,-1.956132531E0
4.325055880E0,-6.677171707E0,6.317051888E0,-1.936989903E0
4.327181296E0,-6.653243542E0,6.340980053E0,-1.931606054E0
4.329307365E0,-6.624529362E0,6.379265308E0,-1.926820397E0
4.331433709E0,-6.605386734E0,6.360122681E0,-1.964507341E0
4.333555016E0,-6.600601196E0,6.379265308E0,-1.978864312E0
4.335669151E0,-6.600601196E0,6.407979012E0,-1.988435626E0
4.337807690E0,-6.643671989E0,6.416952133E0,-2.003390789E0
4.339936048E0,-6.648457527E0,6.421737671E0,-2.027318954E0
4.342065504E0,-6.643671989E0,6.436094761E0,-2.065604210E0
4.344188184E0,-6.647859573E0,6.445665836E0,-2.118246317E0
4.346313693E0,-6.628716946E0,6.488736629E0,-2.160718918E0
4.348440320E0,-6.600003242E0,6.512664795E0,-2.184647083E0
4.350565015E0,-6.610172749E0,6.579664230E0,-2.208575249E0
4.352692539E0,-6.629314899E0,6.655636311E0,-2.223530531E0
4.354822534E0,-6.605386734E0,6.694519520E0,-2.209173441E0
4.356942366E0,-6.582056999E0,6.747161865E0,-2.175075769E0
4.359068087E0,-6.548557281E0,6.751947403E0,-2.165504456E0
4.361186801E0,-6.505486488E0,6.728019238E0,-2.145763636E0
4.363294315E0,-6.471987247E0,6.761518478E0,-2.159522533E0
4.365433516E0,-6.471987247E0,6.761518478E0,-2.169093609E0
4.367572442E0,-6.409773827E0,6.733402729E0,-2.149353027E0
4.369703006E0,-6.404987812E0,6.747759819E0,-2.120639086E0
4.371825992E0,-6.414559364E0,6.757331371E0,-2.134995937E0
4.373948368E0,-6.448058605E0,6.776473522E0,-2.126022816E0
4.376074386E0,-6.463014126E0,6.790830612E0,-2.097907305E0
4.378200178E0,-6.496513367E0,6.857829571E0,-2.060220242E0
4.380326369E0,-6.472585201E0,6.876972198E0,-2.045265198E0
4.382452823E0,-6.497111797E0,6.943971157E0,-2.002792597E0
4.384577692E0,-6.506682873E0,6.991827965E0,-1.974676847E0
4.386703506E0,-6.512066841E0,7.054041386E0,-1.945963025E0
4.388825942E0,-6.449853420E0,7.082755089E0,-1.945364833E0
4.390942163E0,-6.421139717E0,7.121040344E0,-1.968694806E0
4.393080987E0,-6.411568165E0,7.144968510E0,-1.978266120E0
4.395206578E0,-6.411568165E0,7.173682213E0,-1.992623091E0
4.397335941E0,-6.455237389E0,7.235297680E0,-2.012363911E0
4.399459182E0,-6.450451851E0,7.264011383E0,-2.031506538E0
4.401584121E0,-6.445665836E0,7.292725086E0,-2.079362869E0
