"Time (s)","Gyroscope x (rad/s)","Gyroscope y (rad/s)","Gyroscope z (rad/s)"
1.820078100E-2,-1.215927243E0,-1.588555098E0,-1.392772794E-1
2.032494800E-2,-1.287703991E0,-1.668883801E0,-1.185078546E-1
2.245006000E-2,-1.364367485E0,-1.754099607E0,-9.407325089E-2
2.457356400E-2,-1.438587666E0,-1.844049454E0,-7.192938030E-2
2.669937800E-2,-1.515098572E0,-1.941482425E0,-4.749477282E-2
2.882283100E-2,-1.592983842E0,-2.048536539E0,-2.168571576E-2
3.093779200E-2,-1.674534321E0,-2.159255981E0,2.748893574E-3
3.307403200E-2,-1.762040854E0,-2.283414364E0,3.100141138E-2
3.519125000E-2,-1.854434133E0,-2.412459612E0,5.681046844E-2
3.733165100E-2,-1.954157948E0,-2.542573929E0,8.384125680E-2
3.945427100E-2,-2.059990406E0,-2.675284386E0,1.094975919E-1
4.158253700E-2,-2.170557022E0,-2.804329634E0,1.365283877E-1
4.370590000E-2,-2.288606644E0,-2.936887264E0,1.634064466E-1
4.583246700E-2,-2.406503677E0,-3.086549282E0,1.892155111E-1
4.795733300E-2,-2.528065920E0,-3.233920574E0,2.138028294E-1
5.008116400E-2,-2.652071476E0,-3.379917383E0,2.370157093E-1
5.219713100E-2,-2.772564650E0,-3.536909819E0,2.591595948E-1
5.432167300E-2,-2.892904997E0,-3.690389633E0,2.813034356E-1
5.646046700E-2,-3.010802031E0,-3.836386442E0,3.022255898E-1
5.858818300E-2,-3.132364273E0,-3.973983765E0,3.207042515E-1
6.071445400E-2,-3.269656181E0,-4.152814865E0,3.342960179E-1
6.283469400E-2,-3.405879259E0,-4.314846516E0,3.440698385E-1
6.496382400E-2,-3.529884815E0,-4.446335316E0,3.478877544E-1
6.708949500E-2,-3.651447058E0,-4.530329227E0,3.454442918E-1
6.921603200E-2,-3.757126808E0,-4.571715355E0,3.440698385E-1
7.133761300E-2,-3.853185177E0,-4.562094212E0,3.390302062E-1
7.345347900E-2,-3.946953058E0,-4.501313210E0,3.375030458E-1
7.559262900E-2,-4.028503418E0,-4.371199131E0,3.333797157E-1
7.771876800E-2,-4.092949867E0,-4.160603046E0,3.254384696E-1
7.984881300E-2,-4.133266926E0,-3.873496532E0,3.149010241E-1
8.197109800E-2,-4.165031910E0,-3.523012638E0,3.092505336E-1
8.409589400E-2,-4.191909790E0,-3.133585930E0,3.081815243E-1
8.622137300E-2,-4.211610317E0,-2.714990616E0,3.145956099E-1
8.834708400E-2,-4.220468044E0,-2.291355610E0,3.342960179E-1
9.047324400E-2,-4.224438667E0,-1.871538401E0,3.674354553E-1
9.259657600E-2,-4.219857216E0,-1.457524419E0,4.178318381E-1
9.471247200E-2,-4.209319592E0,-1.057102323E0,4.828889668E-1
9.683991400E-2,-4.189008236E0,-6.698137522E-1,5.601634383E-1
9.897658100E-2,-4.160297871E0,-3.008511364E-1,6.484334469E-1
1.011046730E-1,-4.125325680E0,4.382958263E-2,7.440338731E-1
1.032306510E-1,-4.085619450E0,3.555235863E-1,8.411614299E-1
1.053503820E-1,-4.047134876E0,6.149885654E-1,9.309586287E-1
1.074663480E-1,-3.998723984E0,8.051204085E-1,1.007469535E0
1.096066160E-1,-3.945425987E0,8.807149529E-1,1.068403363E0
1.117368660E-1,-3.879757881E0,8.272642493E-1,1.102764487E0
1.138599120E-1,-3.789808035E0,6.374378800E-1,1.099710107E0
1.159769580E-1,-3.675117970E0,3.016147017E-1,1.059240341E0
1.181072270E-1,-3.542254925E0,-1.440114826E-1,9.860892296E-1
1.202341190E-1,-3.394578218E0,-6.614143252E-1,8.849910498E-1
1.223615100E-1,-3.233462572E0,-1.193325281E0,7.596109509E-1
1.244858590E-1,-3.079677105E0,-1.651168704E0,6.204863787E-1
1.266116640E-1,-2.929557085E0,-1.963015437E0,4.798346460E-1
1.287378940E-1,-2.789363384E0,-2.082439661E0,3.582724631E-1
1.308643080E-1,-2.659096479E0,-1.985159278E0,2.851213515E-1
1.329858590E-1,-2.530203819E0,-1.705230355E0,2.651155293E-1
1.350992120E-1,-2.400394917E0,-1.342529058E0,2.730567753E-1
1.372298570E-1,-2.269211769E0,-9.456194043E-1,2.968805134E-1
1.393665150E-1,-2.139402866E0,-5.256495476E-1,3.301726580E-1
1.414955940E-1,-2.007303238E0,-1.067487001E-1,3.758348525E-1
1.436206960E-1,-1.881159544E0,3.023782969E-1,4.288274050E-1
1.457441710E-1,-1.756237626E0,6.980662346E-1,4.903720617E-1
1.478710220E-1,-1.641089439E0,1.071915746E0,5.557346344E-1
1.499965610E-1,-1.530675530E0,1.419039965E0,6.209445000E-1
1.521213170E-1,-1.426523089E0,1.738064289E0,6.850853562E-1
1.542483420E-1,-1.329548240E0,2.019367695E0,7.420485616E-1
1.563784490E-1,-1.239750981E0,2.262950182E0,7.880161405E-1
1.584987280E-1,-1.157284260E0,2.459038019E0,8.206974864E-1
1.606245820E-1,-1.080773354E0,2.600300550E0,8.399397135E-1
1.627490640E-1,-1.008996725E0,2.684294701E0,8.423831463E-1
1.648770050E-1,-9.396634698E-1,2.706133127E0,8.326093554E-1
1.670018720E-1,-8.752171993E-1,2.681851149E0,8.133670688E-1
1.691276040E-1,-8.203920126E-1,2.624582529E0,7.878634334E-1
1.712532140E-1,-7.655668855E-1,2.555249214E0,7.661777139E-1
1.733791710E-1,-7.192938328E-1,2.484694481E0,7.518224120E-1
1.755056360E-1,-6.791294217E-1,2.424982309E0,7.495316267E-1
1.776300250E-1,-6.438519955E-1,2.373975039E0,7.594582438E-1
1.797438360E-1,-6.073527932E-1,2.331367254E0,7.816020846E-1
1.818836680E-1,-5.795583725E-1,2.293798923E0,8.171849847E-1
1.840079760E-1,-5.491678715E-1,2.252565622E0,8.613200188E-1
1.861376350E-1,-5.225952268E-1,2.196671486E0,9.127854109E-1
1.882594910E-1,-5.007568002E-1,2.121382236E0,9.666942358E-1
1.903854680E-1,-4.764748812E-1,2.017993450E0,1.019381404E0
1.925114450E-1,-4.607451260E-1,1.892765999E0,1.074664712E0
1.946370970E-1,-4.437935948E-1,1.745700121E0,1.129948020E0
1.967600830E-1,-4.317290187E-1,1.580308437E0,1.182940602E0
1.988768830E-1,-4.231768847E-1,1.400408626E0,1.238223910E0
2.010147000E-1,-4.147774875E-1,1.206917048E0,1.291216373E0
2.031406160E-1,-4.123340547E-1,1.012356400E0,1.342987299E0
2.052691260E-1,-4.013384581E-1,8.104654551E-1,1.392314553E0
2.073890590E-1,-3.892738819E-1,6.085745096E-1,1.437976837E0
2.095028700E-1,-3.698789179E-1,4.140139222E-1,1.478752017E0
2.116307890E-1,-3.454442918E-1,2.448042482E-1,1.502270341E0
2.137699290E-1,-3.260493279E-1,1.159116775E-1,1.519832730E0
2.158967400E-1,-2.991712391E-1,1.007927675E-2,1.538311362E0
2.180151880E-1,-2.663372457E-1,-7.987063378E-2,1.553277612E0
2.201466890E-1,-2.249511331E-1,-1.430951804E-1,1.568091035E0
2.222722990E-1,-1.800525337E-1,-1.771509200E-1,1.586569786E0
2.243972080E-1,-1.266018152E-1,-1.831068546E-1,1.607491851E0
2.265108560E-1,-6.948592514E-2,-1.696678251E-1,1.631926537E0
2.286499240E-1,-2.748893574E-3,-1.403462887E-1,1.656513810E0
2.307760640E-1,7.131851465E-2,-1.026253626E-1,1.680948496E0
2.329058250E-1,1.527163088E-1,-5.742133409E-2,1.702939630E0
2.350273160E-1,2.402227521E-1,-6.261368748E-3,1.721265554E0
2.371499040E-1,3.326161206E-1,4.367686436E-2,1.733482838E0
2.392659010E-1,4.323398769E-1,8.521570265E-2,1.739744186E0
2.414048370E-1,5.345070958E-1,1.169806942E-1,1.740965962E0
2.435305190E-1,6.389650702E-1,1.412625909E-1,1.733788252E0
2.456570560E-1,7.423539758E-1,1.498146951E-1,1.721723676E0
2.477692990E-1,8.530732989E-1,1.437060535E-1,1.702481389E0
2.498957850E-1,9.674578309E-1,1.255328059E-1,1.679574013E0
2.520335720E-1,1.080620646E0,1.036943719E-1,1.652848601E0
2.541623150E-1,1.196226835E0,7.681630552E-2,1.620167375E0
2.562886070E-1,1.310764074E0,5.131268129E-2,1.588707805E0
2.584110630E-1,1.422705173E0,2.809980139E-2,1.557248235E0
2.605368980E-1,1.530981064E0,1.114829071E-2,1.525788665E0
2.626633330E-1,1.634369969E0,1.527163113E-4,1.495398164E0
2.647900120E-1,1.731802940E0,-2.290744567E-3,1.465160251E0
2.669151840E-1,1.820683837E0,6.261368748E-3,1.433547974E0
2.690399200E-1,1.902234316E0,2.565634064E-2,1.401935697E0
2.711657740E-1,1.976454496E0,4.627304152E-2,1.368949056E0
2.732913640E-1,2.043344259E0,7.177666575E-2,1.334893227E0
2.754187850E-1,2.103056431E0,9.605856240E-2,1.300684810E0
2.775482100E-1,2.159103155E0,1.131627858E-1,1.264185667E0
2.796661400E-1,2.209041357E0,1.130100712E-1,1.227686405E0
2.817950770E-1,2.261423111E0,8.139779419E-2,1.191187263E0
2.839204340E-1,2.315026522E0,1.435533352E-2,1.163392901E0
2.860498380E-1,2.371073484E0,-8.781187981E-2,1.138041973E0
2.881785500E-1,2.423455238E0,-2.266310006E-1,1.117730737E0
2.902977730E-1,2.475836754E0,-3.958406746E-1,1.109636664E0
2.924236790E-1,2.529440165E0,-5.977316499E-1,1.106582403E0
2.945480180E-1,2.581974745E0,-8.216137290E-1,1.110858440E0
2.966721330E-1,2.633134604E0,-1.068708777E0,1.123686671E0
2.987883940E-1,2.684294701E0,-1.327868342E0,1.141554475E0
3.009280430E-1,2.740188837E0,-1.594205618E0,1.166599870E0
3.030529310E-1,2.799900770E0,-1.864360690E0,1.196684957E0
3.051820810E-1,2.858238459E0,-2.052812576E0,1.225242972E0
3.073069590E-1,2.917797804E0,-1.927432537E0,1.247081399E0
3.094417760E-1,2.986825705E0,-1.511127949E0,1.260825872E0
3.115561250E-1,3.046232224E0,-1.294423461E0,1.277624607E0
3.136817460E-1,3.093727112E0,-1.363756657E0,1.304655433E0
3.158038880E-1,3.134960413E0,-1.540143967E0,1.335656881E0
3.179300980E-1,3.166572809E0,-1.683544636E0,1.365436554E0
3.200592180E-1,3.191007376E0,-1.779603124E0,1.393689036E0
3.221849510E-1,3.209180593E0,-1.882992148E0,1.420872569E0
3.243116090E-1,3.224910259E0,-1.990046263E0,1.443016410E0
3.264365790E-1,3.234684229E0,-2.095878601E0,1.462869525E0
3.285624330E-1,3.240792751E0,-2.193158865E0,1.481500983E0
3.306882060E-1,3.240792751E0,-2.314873934E0,1.495092630E0
3.328144060E-1,3.234836817E0,-2.470644474E0,1.500437737E0
3.349406680E-1,3.227659225E0,-2.632523775E0,1.494634509E0
3.370681090E-1,3.218038082E0,-2.787072659E0,1.480279207E0
3.392005050E-1,3.204751730E0,-2.921004772E0,1.454928279E0
3.413129620E-1,3.191465378E0,-3.045315981E0,1.422247052E0
3.434430380E-1,3.169779778E0,-3.205973625E0,1.371392488E0
3.455666450E-1,3.136029482E0,-3.404657364E0,1.299768567E0
3.476953980E-1,3.095101595E0,-3.629914045E0,1.208596945E0
3.498205200E-1,3.046843052E0,-3.872427464E0,1.100473762E0
3.519471990E-1,2.994919538E0,-4.118606091E0,9.789115787E-1
3.540698290E-1,2.935818434E0,-4.361119747E0,8.474228382E-1
3.561796820E-1,2.879160643E0,-4.596302986E0,7.099781036E-1
3.583010100E-1,2.818837643E0,-4.831485748E0,5.676465034E-1
3.604469650E-1,2.758514643E0,-5.055826187E0,4.251621962E-1
3.625680490E-1,2.699413538E0,-5.271614552E0,2.851213515E-1
3.646972400E-1,2.643824816E0,-5.469076633E0,1.488984078E-1
3.668223430E-1,2.590832233E0,-5.653252602E0,1.603521220E-2
3.689371900E-1,2.537687063E0,-5.815437317E0,-1.105666086E-1
3.710805820E-1,2.491872072E0,-5.947078705E0,-2.324342281E-1
3.732041980E-1,2.465452194E0,-6.024047852E0,-3.494149148E-1
3.753341020E-1,2.459648848E0,-6.043747902E0,-4.557054639E-1
3.774555100E-1,2.476905823E0,-6.005110741E0,-5.522221923E-1
3.795786800E-1,2.509892464E0,-5.901874542E0,-6.438519955E-1
3.816953890E-1,2.556165695E0,-5.742591381E0,-7.309002876E-1
3.838332880E-1,2.605034828E0,-5.540700436E0,-8.179485798E-1
3.859598040E-1,2.653751373E0,-5.320636272E0,-9.074403048E-1
3.880874790E-1,2.704911232E0,-5.076137543E0,-9.934195876E-1
3.902105260E-1,2.758514643E0,-4.809800148E0,-1.074512005E0
3.923363200E-1,2.820517540E0,-4.527580261E0,-1.145830512E0
3.944619910E-1,2.883742094E0,-4.242917061E0,-1.209818602E0
3.965878460E-1,2.945744991E0,-3.961919308E0,-1.265254617E0
3.987136290E-1,3.006525993E0,-3.692985773E0,-1.312291265E0
4.008364920E-1,3.061198473E0,-3.432604551E0,-1.351844788E0
4.029533240E-1,3.109915018E0,-3.195436001E0,-1.387733102E0
4.050909380E-1,3.152370214E0,-2.979953289E0,-1.417360067E0
4.072168330E-1,3.186425924E0,-2.792570353E0,-1.441031098E0
4.093455360E-1,3.210707664E0,-2.634356260E0,-1.457219005E0
4.114683490E-1,3.225215673E0,-2.503020287E0,-1.467145562E0
4.135940820E-1,3.228880882E0,-2.404365540E0,-1.472337961E0
4.157198860E-1,3.222772360E0,-2.336254120E0,-1.474934101E0
4.178461150E-1,3.205667973E0,-2.292424440E0,-1.476308584E0
4.199763950E-1,3.182607889E0,-2.266921043E0,-1.475086808E0
4.221129820E-1,3.149773836E0,-2.262033939E0,-1.477683067E0
4.242233960E-1,3.107166052E0,-2.265851974E0,-1.478904724E0
4.263487620E-1,3.060893059E0,-2.270738840E0,-1.477835774E0
4.284712790E-1,3.011107445E0,-2.271960497E0,-1.476613998E0
4.305970830E-1,2.956434965E0,-2.271960497E0,-1.474323273E0
4.327132940E-1,2.896723032E0,-2.262186766E0,-1.473254204E0
4.348525150E-1,2.834720135E0,-2.242791653E0,-1.473407030E0
4.369790910E-1,2.767830372E0,-2.207514286E0,-1.471116185E0
4.391070930E-1,2.700940609E0,-2.144289732E0,-1.461647868E0
4.412296210E-1,2.635119915E0,-2.061517477E0,-1.448514223E0
4.433526380E-1,2.567008495E0,-1.963015437E0,-1.426981211E0
4.454720020E-1,2.502409458E0,-1.850921750E0,-1.396743417E0
4.476068380E-1,2.437810421E0,-1.731650233E0,-1.356884480E0
4.497305060E-1,2.369393587E0,-1.598939776E0,-1.306029916E0
4.518523930E-1,2.291355610E0,-1.441794753E0,-1.240667343E0
4.539853790E-1,2.174374819E0,-1.210429430E0,-1.162018418E0
4.561103790E-1,2.006081581E0,-9.219483733E-1,-1.061683774E0
4.582382070E-1,1.803885102E0,-6.734789610E-1,-9.503536224E-1
4.603613750E-1,1.627192259E0,-5.917757154E-1,-8.469646573E-1
4.624872810E-1,1.489594936E0,-6.574437022E-1,-7.713701129E-1
4.646131560E-1,1.400866747E0,-7.851145267E-1,-7.249443531E-1
4.667390010E-1,1.343750834E0,-9.080511928E-1,-7.028004527E-1
4.688650280E-1,1.310916781E0,-9.981538057E-1,-6.953173876E-1
4.709890210E-1,1.297477722E0,-1.040761709E0,-6.951646209E-1
4.731007760E-1,1.296256065E0,-1.032209516E0,-7.000515461E-1
4.752208130E-1,1.306029916E0,-9.834930301E-1,-7.087563872E-1
4.773651300E-1,1.321912408E0,-9.141598344E-1,-7.235698700E-1
4.794963350E-1,1.342529058E0,-8.315402865E-1,-7.420485616E-1
4.816248450E-1,1.363145828E0,-7.402159572E-1,-7.593054771E-1
4.837459390E-1,1.380249977E0,-6.417139173E-1,-7.765624523E-1
4.858714480E-1,1.397201538E0,-5.383250117E-1,-7.889324427E-1
4.879949010E-1,1.408044338E0,-4.335615933E-1,-7.953465581E-1
4.901074800E-1,1.408044338E0,-3.265074790E-1,-8.003861904E-1
4.922345050E-1,1.404379249E0,-2.157881409E-1,-8.006916046E-1
4.943679290E-1,1.388496757E0,-1.099557430E-1,-7.997753024E-1
4.964940270E-1,1.366505504E0,-7.635815535E-3,-8.013024926E-1
4.986292190E-1,1.334893227E0,8.964447677E-2,-8.197811842E-1
5.007527040E-1,1.294881582E0,1.808161139E-1,-8.347473741E-1
5.028800440E-1,1.248608589E0,2.732094824E-1,-8.411614299E-1
5.050047280E-1,1.198670268E0,3.547599912E-1,-8.402451277E-1
5.071291780E-1,1.148732066E0,4.144720733E-1,-8.283332586E-1
5.092519520E-1,1.100015640E0,4.460843503E-1,-8.077165484E-1
5.113641040E-1,1.050077319E0,4.399756789E-1,-7.832819819E-1
5.134902940E-1,1.006247759E0,4.059199691E-1,-7.539604306E-1
5.156190980E-1,9.648616314E-1,3.475823104E-1,-7.185302377E-1
5.177614320E-1,9.344711304E-1,2.637410760E-1,-6.817256212E-1
5.198874800E-1,9.039278626E-1,1.627955884E-1,-6.412557960E-1
5.220139650E-1,8.869763613E-1,3.985895589E-2,-6.007859707E-1
5.241355180E-1,8.784242272E-1,-9.987647086E-2,-5.589417219E-1
5.262613830E-1,8.831584454E-1,-2.605340183E-1,-5.170974135E-1
5.283870120E-1,9.039278626E-1,-4.234823287E-1,-4.763221741E-1
5.305128670E-1,9.414960742E-1,-5.913175344E-1,-4.356996417E-1
5.326386510E-1,9.987646937E-1,-7.591527700E-1,-3.998112977E-1
5.347611070E-1,1.072832108E0,-9.208793640E-1,-3.686571717E-1
5.368774820E-1,1.162934661E0,-1.076497316E0,-3.413209617E-1
5.390171390E-1,1.268767118E0,-1.230893493E0,-3.164281845E-1
5.411419570E-1,1.387885809E0,-1.363451242E0,-2.950479090E-1
5.432712700E-1,1.513113260E0,-1.476613998E0,-2.725986242E-1
5.453932090E-1,1.649336219E0,-1.565189481E0,-2.501493096E-1
5.475192140E-1,1.784337401E0,-1.623527050E0,-2.302961946E-1
5.496449280E-1,1.919185877E0,-1.662317038E0,-2.092213482E-1
5.517707710E-1,2.052965403E0,-1.680490255E0,-1.918116808E-1
5.538931880E-1,2.180636168E0,-1.673159957E0,-1.794416606E-1
5.560068150E-1,2.298533201E0,-1.643838406E0,-1.756237596E-1
5.581421700E-1,2.409252644E0,-1.606117487E0,-1.974621862E-1
5.602743830E-1,2.516306639E0,-1.567174792E0,-2.229658216E-1
5.624033710E-1,2.612365246E0,-1.531897306E0,-2.474004179E-1
5.645270390E-1,2.707354784E0,-1.500132322E0,-2.704605758E-1
5.666512150E-1,2.794861317E0,-1.475850463E0,-2.910772860E-1
5.687772420E-1,2.877633572E0,-1.464854836E0,-3.129157126E-1
5.709033710E-1,2.957962275E0,-1.467298269E0,-3.359758854E-1
5.730298670E-1,3.026073694E0,-1.470963478E0,-3.614795208E-1
5.751489260E-1,3.087007523E0,-1.483180761E0,-3.857614100E-1
5.772544450E-1,3.140610933E0,-1.505172014E0,-4.124867618E-1
5.793929140E-1,3.185662270E0,-1.529453874E0,-4.404338300E-1
5.815323690E-1,3.220939636E0,-1.544114590E0,-4.683809280E-1
5.836634520E-1,3.250261307E0,-1.534493446E0,-4.928155243E-1
5.857867840E-1,3.269809008E0,-1.550375938E0,-5.146539807E-1
5.879095460E-1,3.274695873E0,-1.597870708E0,-5.280929804E-1
5.900361640E-1,3.267518282E0,-1.689042449E0,-5.363397002E-1
5.921612050E-1,3.250566721E0,-1.782810211E0,-5.386304259E-1
5.942872320E-1,3.225063086E0,-1.864360690E0,-5.396994352E-1
5.964141650E-1,3.189785480E0,-1.966680646E0,-5.419901609E-1
5.985439970E-1,3.150995731E0,-2.066404343E0,-5.442809463E-1
6.006566580E-1,3.104722500E0,-2.149176598E0,-5.441282392E-1
6.027900710E-1,3.048828363E0,-2.217440844E0,-5.355761051E-1
6.049141450E-1,2.988047361E0,-2.275778532E0,-5.196936131E-1
6.070443430E-1,2.930778742E0,-2.323273182E0,-4.952589869E-1
6.091672980E-1,2.882215023E0,-2.363437653E0,-4.634940028E-1
6.112930920E-1,2.849228144E0,-2.369393587E0,-4.305072725E-1
6.134186520E-1,2.829680443E0,-2.337781191E0,-4.013384581E-1
6.155434790E-1,2.819906712E0,-2.281734467E0,-3.721696436E-1
6.176646930E-1,2.806314945E0,-2.234086990E0,-3.417791128E-1
6.197879450E-1,2.783254862E0,-2.215760946E0,-3.077233732E-1
6.219097200E-1,2.752711535E0,-2.208430529E0,-2.773328125E-1
6.240503250E-1,2.712547064E0,-2.185370445E0,-2.493857294E-1
6.261760890E-1,2.666121244E0,-2.149940252E0,-2.238821089E-1
6.283044650E-1,2.652682304E0,-2.109775782E0,-1.971567571E-1
6.304321190E-1,3.329979181E0,-2.268600702E0,-1.430951804E-1
6.325509350E-1,3.738647938E0,-2.297616959E0,-1.215621829E-1
6.346768810E-1,3.386026144E0,-2.282192469E0,-1.881465018E-1
6.368008750E-1,3.039665461E0,-2.350609541E0,-2.580905557E-1
6.389271660E-1,2.976593733E0,-2.435977936E0,-2.813034356E-1
6.410496440E-1,3.069139719E0,-2.516154051E0,-2.918408811E-1
6.431802690E-1,3.042414427E0,-2.568688393E0,-3.211624026E-1
6.453061950E-1,2.866332531E0,-2.644282818E0,-3.810271919E-1
6.474327920E-1,2.705980301E0,-2.666426897E0,-4.508185387E-1
6.495548620E-1,2.630691290E0,-2.605798483E0,-4.987714589E-1
6.516734330E-1,2.589305162E0,-2.483014584E0,-5.345070958E-1
6.538093480E-1,2.516306639E0,-2.333352566E0,-5.752823353E-1
6.559351420E-1,2.415513992E0,-2.172847748E0,-6.087272167E-1
6.580615250E-1,2.333963394E0,-2.003790617E0,-6.191119552E-1
6.601761600E-1,2.279138327E0,-1.835955501E0,-6.195700765E-1
6.623122480E-1,2.229199886E0,-1.666745782E0,-6.151412725E-1
6.644380110E-1,2.165822744E0,-1.518305540E0,-6.094908118E-1
6.665662470E-1,2.096489429E0,-1.385747790E0,-6.075055003E-1
6.686896080E-1,2.030668736E0,-1.249372125E0,-6.030766964E-1
6.708152180E-1,1.973400116E0,-1.105818868E0,-5.827654600E-1
6.729414900E-1,1.919796705E0,-1.043663263E0,-5.696318150E-1
6.750680670E-1,1.866346002E0,-1.048550248E0,-5.647448897E-1
6.771932910E-1,1.821294785E0,-1.097266674E0,-5.610797405E-1
6.793154930E-1,1.788460732E0,-1.152091861E0,-5.537493229E-1
6.814277570E-1,1.690111399E0,-1.254411817E0,-5.487096906E-1
6.835571010E-1,9.025533795E-1,-1.766164184E0,-6.588181853E-1
6.856959870E-1,1.467603743E-1,-2.093129873E0,-8.327620625E-1
6.878249640E-1,1.988366395E-1,-1.611309767E0,-8.436049223E-1
6.899511550E-1,1.595885456E-1,-1.124297500E0,-7.788531780E-1
6.920748010E-1,4.886921961E-3,-9.563095570E-1,-7.014260292E-1
6.942003100E-1,-1.267545391E-2,-8.501716852E-1,-5.624541640E-1
6.963252290E-1,1.279762685E-1,-6.927211881E-1,-4.308127165E-1
6.984504930E-1,2.687807083E-1,-6.924157739E-1,-3.097086847E-1
7.005743340E-1,1.713477075E-1,-8.054258227E-1,-2.374738604E-1
7.026929760E-1,5.955935922E-3,-8.506298661E-1,-2.267837226E-1
7.048281590E-1,-4.627304152E-2,-7.470881939E-1,-2.222022265E-1
7.069508700E-1,-4.398229718E-2,-6.290385127E-1,-1.980730593E-1
7.090668260E-1,-5.146539584E-2,-5.888741016E-1,-1.713477075E-1
7.111925590E-1,-3.924809024E-2,-6.046038866E-1,-1.553124934E-1
7.133316590E-1,9.162978968E-4,-6.191119552E-1,-1.504255682E-1
7.154601790E-1,1.053742506E-2,-6.058256030E-1,-1.675297916E-1
7.175860830E-1,-2.825251780E-2,-5.670356750E-1,-2.043344229E-1
7.197101780E-1,-6.826419383E-2,-5.050328374E-1,-2.301434875E-1
7.218374470E-1,-8.292495459E-2,-4.587597847E-1,-2.364048511E-1
7.239477780E-1,-8.536841720E-2,-4.247040749E-1,-2.241875380E-1
7.260871320E-1,-8.674286306E-2,-4.039346576E-1,-1.913535446E-1
7.282102490E-1,-7.345654815E-2,-3.915646076E-1,-1.559233516E-1
7.303411600E-1,-5.772676691E-2,-3.746131063E-1,-1.400408596E-1
7.324632100E-1,-4.795292020E-2,-3.599523604E-1,-1.485929638E-1
7.345892170E-1,-4.306599870E-2,-3.417791128E-1,-1.718058437E-1
7.367151840E-1,-3.924809024E-2,-3.430008292E-1,-2.035708427E-1
7.388407730E-1,-3.313944116E-2,-3.625485301E-1,-2.304489166E-1
7.409636780E-1,-2.336559631E-2,-3.894265890E-1,-2.510656118E-1
7.430773160E-1,-1.725694351E-2,-4.112650156E-1,-2.692388594E-1
7.452054890E-1,-3.817907767E-3,-4.466952085E-1,-2.863430977E-1
7.473444260E-1,3.512475174E-3,-4.831944108E-1,-3.020728528E-1
7.494727720E-1,1.221730490E-3,-5.111414790E-1,-3.092505336E-1
7.515987390E-1,-3.665191587E-3,-5.306891799E-1,-3.129157126E-1
7.537211650E-1,-3.665191587E-3,-5.416847467E-1,-3.165809214E-1
7.558471010E-1,-6.108652335E-3,-5.441282392E-1,-3.202461004E-1
7.579734030E-1,-8.552113548E-3,-5.404630303E-1,-3.300199509E-1
7.601006720E-1,-1.450804994E-2,-5.247332454E-1,-3.410155177E-1
7.622257740E-1,-2.183843218E-2,-4.955644310E-1,-3.546072841E-1
7.643471940E-1,-3.023782931E-2,-4.590652287E-1,-3.692680299E-1
7.664626320E-1,-4.123340547E-2,-4.115704596E-1,-3.901901841E-1
7.686016690E-1,-4.856378585E-2,-3.556762934E-1,-4.135557711E-1
7.707277680E-1,-5.818491429E-2,-2.973386645E-1,-4.369213581E-1
7.728568170E-1,-7.040221989E-2,-2.328923792E-1,-4.627304375E-1
7.749796100E-1,-8.124507964E-2,-1.721112877E-1,-4.897612035E-1
7.771062470E-1,-9.208793938E-2,-1.174388453E-1,-5.154175758E-1
7.792313490E-1,-1.055269688E-1,-7.131851465E-2,-5.436700583E-1
7.813570610E-1,-1.188132912E-1,-3.481931984E-2,-5.694791079E-1
7.834842990E-1,-1.284344196E-1,-5.650503561E-3,-5.914703012E-1
7.856133480E-1,-1.394299865E-1,2.840523422E-2,-6.062837839E-1
7.877179210E-1,-1.492038369E-1,6.612616032E-2,-6.148358583E-1
7.898468070E-1,-1.588249654E-1,1.134682223E-1,-6.186537743E-1
7.919839540E-1,-1.734857261E-1,1.731802970E-1,-6.249151230E-1
7.941172850E-1,-1.892155111E-1,2.472477108E-1,-6.470590234E-1
7.962468620E-1,-2.075414658E-1,3.226895630E-1,-6.742424965E-1
7.983633880E-1,-2.257147133E-1,4.005748928E-1,-6.939429045E-1
8.004887240E-1,-2.403754741E-1,4.699080884E-1,-7.063129544E-1
8.026131150E-1,-2.622139156E-1,5.525276065E-1,-7.102835774E-1
8.047425900E-1,-2.866485119E-1,6.609562039E-1,-7.081455588E-1
8.068734190E-1,-3.074179292E-1,7.874053121E-1,-7.011205554E-1
8.089876660E-1,-3.306308091E-1,9.480628371E-1,-6.881396770E-1
8.111188510E-1,-3.538436890E-1,1.124602914E0,-6.702718735E-1
8.132416540E-1,-3.758348525E-1,1.286482215E0,-6.450737119E-1
8.153709270E-1,-3.967569768E-1,1.405906320E0,-6.148358583E-1
8.174951430E-1,-4.175263941E-1,1.447292447E0,-5.807801485E-1
8.196211090E-1,-4.405865669E-1,1.415680170E0,-5.551238060E-1
8.217467610E-1,-4.746423066E-1,1.374294043E0,-5.404630303E-1
8.238696760E-1,-5.111414790E-1,1.370628953E0,-5.294674635E-1
8.259840260E-1,-5.404630303E-1,1.421788812E0,-5.198463202E-1
8.281128500E-1,-5.612324476E-1,1.516778350E0,-5.006040931E-1
8.302512370E-1,-5.795583725E-1,1.621541739E0,-4.728097022E-1
8.323789530E-1,-6.064364910E-1,1.718974829E0,-4.340197444E-1
8.345045640E-1,-6.333145499E-1,1.811520934E0,-3.891211748E-1
8.366271340E-1,-6.566801667E-1,1.906510472E0,-3.454442918E-1
8.387531090E-1,-6.774495840E-1,2.002721786E0,-3.066543639E-1
8.408790450E-1,-7.031059265E-1,2.123214960E0,-2.837468982E-1
8.430055710E-1,-7.214318514E-1,2.243708134E0,-2.779437006E-1
8.451316390E-1,-7.214318514E-1,2.277763844E0,-2.780964077E-1
8.472559370E-1,-7.444919944E-1,2.272876978E0,-2.842050493E-1
8.493804390E-1,-7.797694802E-1,2.237599373E0,-2.854267955E-1
8.515077280E-1,-8.187121153E-1,2.202322006E0,-2.756529450E-1
8.536336340E-1,-8.527678847E-1,2.164601088E0,-2.622139156E-1
8.557600070E-1,-8.454375267E-1,2.064877272E0,-2.545780838E-1
8.578828590E-1,-8.077165484E-1,1.937053680E0,-2.493857294E-1
8.600018580E-1,-7.663304210E-1,1.797165513E0,-2.501493096E-1
8.621379560E-1,-7.394523621E-1,1.665676832E0,-2.559525371E-1
8.642629170E-1,-7.247915864E-1,1.548848867E0,-2.715296149E-1
8.663948040E-1,-7.148650289E-1,1.439198494E0,-2.981022298E-1
8.685257130E-1,-7.014260292E-1,1.332144380E0,-3.295617998E-1
8.706270520E-1,-6.757696867E-1,1.224937558E0,-3.634648323E-1
8.727496310E-1,-6.403394938E-1,1.114065528E0,-4.008803070E-1
8.748884050E-1,-6.061310172E-1,1.002124429E0,-4.372268021E-1
8.770200260E-1,-5.719226003E-1,8.961393237E-1,-4.711298347E-1
8.791482410E-1,-5.340489149E-1,8.072584271E-1,-5.172501206E-1
8.812690810E-1,-4.948008358E-1,6.986771226E-1,-6.047565937E-1
8.833949460E-1,-4.579962194E-1,5.572618246E-1,-7.313584089E-1
8.855204760E-1,-4.283692539E-1,3.865249753E-1,-8.822421432E-1
8.876435930E-1,-3.998112977E-1,1.817324162E-1,-1.040456176E0
8.897560810E-1,-3.652974069E-1,-2.412917651E-2,-1.182787776E0
8.918799520E-1,-3.272710443E-1,-1.838704348E-1,-1.295797944E0
8.940244530E-1,-2.820670307E-1,-2.996293902E-1,-1.374752283E0
8.961544170E-1,-2.283108830E-1,-3.678936064E-1,-1.423468709E0
8.982812170E-1,-1.663080603E-1,-3.885102868E-1,-1.442710996E0
9.004015480E-1,-1.018617824E-1,-3.811798990E-1,-1.441489220E0
9.025266700E-1,-3.375030309E-2,-3.799581826E-1,-1.430341005E0
9.046525560E-1,2.947424725E-2,-3.920227587E-1,-1.408197165E0
9.067788280E-1,8.888089657E-2,-4.126394689E-1,-1.382387996E0
9.089070210E-1,1.411098689E-1,-4.332561791E-1,-1.357953429E0
9.110408710E-1,1.898263693E-1,-4.550946057E-1,-1.330922604E0
9.131570210E-1,2.359467000E-1,-4.767803252E-1,-1.302670121E0
9.152819200E-1,2.845104933E-1,-5.010622144E-1,-1.276861072E0
9.174053730E-1,3.294090927E-1,-5.143485069E-1,-1.248761296E0
9.195332420E-1,3.718642294E-1,-5.288565755E-1,-1.221730471E0
9.216592700E-1,4.083634019E-1,-5.421429276E-1,-1.192408919E0
9.237853180E-1,4.386012554E-1,-5.652030706E-1,-1.154382586E0
9.259111830E-1,4.653266072E-1,-5.955936313E-1,-1.126130104E0
9.280374230E-1,4.908302128E-1,-6.272059083E-1,-1.102917194E0
9.301654340E-1,5.163338780E-1,-6.586654782E-1,-1.085660219E0
9.322881560E-1,5.393940210E-1,-6.806566119E-1,-1.073442936E0
9.344142340E-1,5.626068711E-1,-7.000515461E-1,-1.065959811E0
9.365366820E-1,5.832235813E-1,-7.218900323E-1,-1.065959811E0
9.386538480E-1,6.039929986E-1,-7.463245988E-1,-1.069472313E0
9.407814520E-1,6.258314252E-1,-7.718282342E-1,-1.072984815E0
9.429171740E-1,6.429356933E-1,-7.973318696E-1,-1.082758665E0
9.450455210E-1,6.635523438E-1,-8.242099285E-1,-1.093601465E0
9.471722810E-1,6.843217611E-1,-8.546004891E-1,-1.105666041E0
9.492951040E-1,7.038694620E-1,-8.935431242E-1,-1.118952394E0
9.514219660E-1,7.221954465E-1,-9.324858189E-1,-1.131016970E0
9.535458170E-1,7.403686643E-1,-9.775370955E-1,-1.143081546E0
9.556704710E-1,7.599163651E-1,-1.025031924E0,-1.155146122E0
9.577892450E-1,7.770205736E-1,-1.072526693E0,-1.164767265E0
9.599118140E-1,7.965682745E-1,-1.123686671E0,-1.173166752E0
9.620430700E-1,8.136724830E-1,-1.179580808E0,-1.179122686E0
9.641778560E-1,8.269588351E-1,-1.236849427E0,-1.188743711E0
9.663045350E-1,8.416196108E-1,-1.290452838E0,-1.195921421E0
9.684286500E-1,8.538368940E-1,-1.341612816E0,-1.204320788E0
9.705523580E-1,8.648324609E-1,-1.388954878E0,-1.211498499E0
9.726780290E-1,8.794932365E-1,-1.432784438E0,-1.219897866E0
9.748040260E-1,8.892670870E-1,-1.474170566E0,-1.232115149E0
9.769298610E-1,9.002626538E-1,-1.503492117E0,-1.244179845E0
9.790517270E-1,9.112582207E-1,-1.525330544E0,-1.258687854E0
9.811653240E-1,9.198103547E-1,-1.543656468E0,-1.274570346E0
9.833074240E-1,9.259189963E-1,-1.559538960E0,-1.297783256E0
9.854333090E-1,9.321803451E-1,-1.575421453E0,-1.329395533E0
9.875665490E-1,9.359982610E-1,-1.597565293E0,-1.402546644E0
9.896992800E-1,9.361509681E-1,-1.615891337E0,-1.486845970E0
9.918107100E-1,9.352346659E-1,-1.639256835E0,-1.570992708E0
9.939366060E-1,9.269880056E-1,-1.663844228E0,-1.658804536E0
9.960555330E-1,9.173668623E-1,-1.678504944E0,-1.715004206E0
9.981760660E-1,9.112582207E-1,-1.685988069E0,-1.741729498E0
1.000310934E0,8.991936445E-1,-1.685988069E0,-1.744325757E0
1.002428355E0,8.943067193E-1,-1.682322860E0,-1.729664922E0
1.004568187E0,8.857545853E-1,-1.676061511E0,-1.706452012E0
1.006687775E0,8.929322958E-1,-1.669952869E0,-1.684460878E0
1.008806885E0,9.074403048E-1,-1.671174645E0,-1.663691521E0
1.010939912E0,9.172141552E-1,-1.684460878E0,-1.646587253E0
1.013052389E0,9.341656566E-1,-1.691791296E0,-1.631926537E0
1.015185630E0,9.535606503E-1,-1.689347863E0,-1.619709253E0
1.017320292E0,9.766207933E-1,-1.686751604E0,-1.601230502E0
1.019449128E0,1.002124429E0,-1.675756097E0,-1.582904577E0
1.021571300E0,1.034958482E0,-1.646587253E0,-1.568243742E0
1.023684216E0,1.081078768E0,-1.613600492E0,-1.554957509E0
1.025823193E0,1.116356254E0,-1.596496344E0,-1.553583026E0
1.027948935E0,1.147968531E0,-1.592831135E0,-1.562135100E0
1.030078380E0,1.184467673E0,-1.589318633E0,-1.574352503E0
1.032202384E0,1.208749652E0,-1.585653424E0,-1.585195303E0
1.034329622E0,1.233184218E0,-1.595427275E0,-1.601077795E0
1.036452466E0,1.253953576E0,-1.622152686E0,-1.625359654E0
1.038577801E0,1.271057844E0,-1.640478611E0,-1.654528499E0
1.040700024E0,1.282053471E0,-1.653917670E0,-1.675297976E0
1.042820985E0,1.286940336E0,-1.668578386E0,-1.693623900E0
1.044967806E0,1.280984402E0,-1.683239222E0,-1.708131909E0
1.047081361E0,1.283427835E0,-1.693013072E0,-1.728901386E0
1.049210857E0,1.293201685E0,-1.686904430E0,-1.742340446E0
1.051330019E0,1.301753879E0,-1.676061511E0,-1.754557729E0
1.053458813E0,1.304197311E0,-1.672396302E0,-1.760666370E0
1.055584129E0,1.315040112E0,-1.666287661E0,-1.763109803E0
1.057710166E0,1.311527729E0,-1.652848601E0,-1.766775012E0
1.059835929E0,1.310305953E0,-1.645518303E0,-1.761888027E0
1.061961682E0,1.318705320E0,-1.647961736E0,-1.759444594E0
1.064087699E0,1.324813962E0,-1.647961736E0,-1.753335953E0
1.066214378E0,1.319927096E0,-1.646739960E0,-1.742340446E0
1.068339419E0,1.322370529E0,-1.641853094E0,-1.728901386E0
1.070465191E0,1.316109180E0,-1.621083617E0,-1.710728168E0
1.072590365E0,1.312443972E0,-1.608866334E0,-1.693623900E0
1.074716352E0,1.313665748E0,-1.588249683E0,-1.676672339E0
1.076842145E0,1.311222196E0,-1.565036774E0,-1.659568191E0
1.078967877E0,1.307404399E0,-1.550375938E0,-1.641242146E0
1.081094078E0,1.306182623E0,-1.552819490E0,-1.624137998E0
1.083215599E0,1.298852205E0,-1.538158655E0,-1.607186437E0
1.085325320E0,1.287856698E0,-1.502881169E0,-1.591456652E0
1.087471306E0,1.287856698E0,-1.483333588E0,-1.573130727E0
1.089593539E0,1.276861072E0,-1.460120678E0,-1.556179166E0
1.091714979E0,1.269377947E0,-1.439503908E0,-1.539075017E0
1.093848870E0,1.260825872E0,-1.432173610E0,-1.524414182E0
1.095974358E0,1.252273798E0,-1.450346828E0,-1.508531690E0
1.098103742E0,1.227991819E0,-1.425912142E0,-1.491580248E0
1.100227237E0,1.218217969E0,-1.412473202E0,-1.475697756E0
1.102352980E0,1.204779029E0,-1.413694859E0,-1.458746195E0
1.104472273E0,1.187674761E0,-1.423468709E0,-1.442863703E0
1.106577416E0,1.159727693E0,-1.399034142E0,-1.428355694E0
1.108715773E0,1.145066857E0,-1.377195716E0,-1.412473202E0
1.110854892E0,1.123075724E0,-1.367421865E0,-1.395521641E0
1.112986403E0,1.096350431E0,-1.361313224E0,-1.382082582E0
1.115110172E0,1.074359298E0,-1.373377800E0,-1.367421865E0
1.117233402E0,1.054964304E0,-1.399034142E0,-1.356426239E0
1.119358269E0,1.023199320E0,-1.361160517E0,-1.341918230E0
1.121481357E0,1.011134744E0,-1.349095941E0,-1.328631878E0
1.123594293E0,9.854783416E-1,-1.335656881E0,-1.317636371E0
1.125715997E0,9.624181986E-1,-1.323439598E0,-1.304350019E0
1.127848281E0,9.367618561E-1,-1.317330956E0,-1.290910959E0
1.129989913E0,9.149234295E-1,-1.323439598E0,-1.279915452E0
1.132117273E0,8.929322958E-1,-1.336725831E0,-1.267698050E0
1.134243025E0,8.564330935E-1,-1.301448345E0,-1.255633473E0
1.136364608E0,8.454375267E-1,-1.296561480E0,-1.243568897E0
1.138490665E0,8.174903989E-1,-1.279609919E0,-1.233795047E0
1.140616011E0,7.954992652E-1,-1.263727427E0,-1.224173903E0
1.142741886E0,7.748825550E-1,-1.250288486E0,-1.214400053E0
1.144864008E0,7.528914213E-1,-1.235780358E0,-1.206000686E0
1.146978998E0,7.382306457E-1,-1.229671717E0,-1.197448611E0
1.149119592E0,7.273877859E-1,-1.255175352E0,-1.191339970E0
1.151246139E0,7.017314434E-1,-1.212567568E0,-1.184162259E0
1.153371718E0,7.005097270E-1,-1.179733515E0,-1.178206325E0
1.155483668E0,6.907358766E-1,-1.150564671E0,-1.170875907E0
1.157615900E0,6.785185933E-1,-1.117577910E0,-1.164919972E0
1.159748255E0,6.736316681E-1,-1.087187409E0,-1.157589674E0
1.161876887E0,6.614143252E-1,-1.061683774E0,-1.150411963E0
1.164001368E0,6.528622508E-1,-1.040914416E0,-1.143081546E0
1.166125920E0,6.383541822E-1,-1.023810148E0,-1.134682178E0
1.168252700E0,6.236934066E-1,-1.014189005E0,-1.124908328E0
1.170378442E0,6.175847650E-1,-1.001971722E0,-1.117730737E0
1.172503545E0,6.017022729E-1,-9.873109460E-1,-1.107956886E0
1.174628983E0,5.894849896E-1,-9.714284539E-1,-1.100626469E0
1.176754247E0,5.786421299E-1,-9.556986690E-1,-1.093448758E0
1.178880406E0,5.639813542E-1,-9.447031021E-1,-1.086118460E0
1.181006251E0,5.505422950E-1,-9.385944605E-1,-1.078940749E0
1.183132400E0,5.358815193E-1,-9.312640429E-1,-1.072832108E0
1.185258835E0,5.201517344E-1,-9.263771176E-1,-1.065501690E0
1.187383102E0,5.030475259E-1,-9.155342579E-1,-1.058323979E0
1.189507614E0,4.871650338E-1,-9.020952582E-1,-1.052215338E0
1.191634924E0,4.714352489E-1,-8.910996914E-1,-1.046106696E0
1.193761022E0,4.555527568E-1,-8.825475574E-1,-1.040150762E0
1.195883520E0,4.386012554E-1,-8.727737069E-1,-1.034042120E0
1.197996465E0,4.190535545E-1,-8.668177724E-1,-1.029155254E0
1.200138728E0,4.019493461E-1,-8.619308472E-1,-1.023199320E0
1.202265081E0,3.837760985E-1,-8.619308472E-1,-1.017090678E0
1.204393906E0,3.654501438E-1,-8.619308472E-1,-1.012203693E0
1.206512793E0,3.472768962E-1,-8.558222055E-1,-1.009912968E0
1.208625035E0,3.326161206E-1,-8.509352803E-1,-1.007469535E0
1.210754390E0,3.205515444E-1,-8.362745047E-1,-1.005026102E0
1.212893428E0,3.083342314E-1,-8.205447197E-1,-1.003957033E0
1.215022182E0,2.985603809E-1,-8.022187948E-1,-1.001513600E0
1.217144974E0,2.900082767E-1,-7.828238010E-1,-1.002735257E0
1.219252945E0,2.838996351E-1,-7.644978762E-1,-1.000444531E0
1.221374081E0,2.777909636E-1,-7.499898076E-1,-1.000444531E0
1.223522427E0,2.718350291E-1,-7.365507483E-1,-9.992228150E-1
1.225650916E0,2.657263875E-1,-7.255551815E-1,-9.981538057E-1
1.227779251E0,2.608394623E-1,-7.134906054E-1,-9.957103729E-1
1.229899298E0,2.559525371E-1,-7.012733221E-1,-9.932668805E-1
1.232025326E0,2.547308207E-1,-6.939429045E-1,-9.908234477E-1
1.234151323E0,2.522873580E-1,-6.829473376E-1,-9.896016717E-1
1.236278226E0,2.510656118E-1,-6.721044779E-1,-9.860892296E-1
1.238400550E0,2.522873580E-1,-6.611089110E-1,-9.836457372E-1
1.240515388E0,2.547308207E-1,-6.501133442E-1,-9.812023044E-1
1.242654059E0,2.522873580E-1,-6.391177773E-1,-9.775370955E-1
1.244779741E0,2.545780838E-1,-6.354525685E-1,-9.738719463E-1
1.246909166E0,2.557998300E-1,-6.330091357E-1,-9.677632451E-1
1.249028296E0,2.557998300E-1,-6.281222105E-1,-9.616546035E-1
1.251144721E0,2.582432926E-1,-6.244570017E-1,-9.543242455E-1
1.253284319E0,2.582432926E-1,-6.195700765E-1,-9.469938278E-1
1.255409207E0,2.606867552E-1,-6.146831512E-1,-9.410378933E-1
1.257535376E0,2.641992271E-1,-6.085745096E-1,-9.349292517E-1
1.259644060E0,2.678644061E-1,-6.073527932E-1,-9.288206100E-1
1.261773495E0,2.690861523E-1,-6.097962260E-1,-9.239336848E-1
1.263912178E0,2.690861523E-1,-6.110179424E-1,-9.202684760E-1
1.266041267E0,2.715296149E-1,-6.134614348E-1,-9.166033268E-1
1.268167661E0,2.751947939E-1,-6.159048676E-1,-9.104946256E-1
1.270290575E0,2.764165103E-1,-6.146831512E-1,-9.080511928E-1
1.272415545E0,2.787072659E-1,-6.110179424E-1,-9.068294764E-1
1.274541440E0,2.811507285E-1,-6.036875844E-1,-9.068294764E-1
1.276666725E0,2.823724449E-1,-5.902485251E-1,-9.080511928E-1
1.278791694E0,2.872593701E-1,-5.781839490E-1,-9.092729092E-1
1.280914294E0,2.909245789E-1,-5.635231733E-1,-9.117164016E-1
1.283044401E0,2.945897579E-1,-5.416847467E-1,-9.129381180E-1
1.285170622E0,3.031418920E-1,-5.258022547E-1,-9.155342579E-1
1.287298520E0,3.090978265E-1,-5.027421117E-1,-9.179777503E-1
1.289421852E0,3.200933933E-1,-4.856378734E-1,-9.204211831E-1
1.291547981E0,3.310889602E-1,-4.699080884E-1,-9.253081083E-1
1.293672941E0,3.431535661E-1,-4.540255964E-1,-9.277516007E-1
1.295799132E0,3.541491330E-1,-4.369213581E-1,-9.301950336E-1
1.297924914E0,3.686571717E-1,-4.285219610E-1,-9.314168096E-1
1.300046608E0,3.833179474E-1,-4.211915731E-1,-9.326385260E-1
1.302160469E0,3.979786932E-1,-4.175263941E-1,-9.350819588E-1
1.304303658E0,4.149302244E-1,-4.187481403E-1,-9.363036752E-1
1.306429289E0,4.283692539E-1,-4.248567820E-1,-9.387471676E-1
1.308558368E0,4.428772926E-1,-4.308127165E-1,-9.410378933E-1
1.310679482E0,4.575380683E-1,-4.405865669E-1,-9.422596693E-1
1.312805255E0,4.697553813E-1,-4.479169548E-1,-9.434813857E-1
1.314931313E0,4.830417037E-1,-4.540255964E-1,-9.445503950E-1
1.317056994E0,4.952589869E-1,-4.552473128E-1,-9.457721114E-1
1.319183174E0,5.074763298E-1,-4.576907754E-1,-9.469938278E-1
1.321306638E0,5.207626224E-1,-4.563163519E-1,-9.469938278E-1
1.323419462E0,5.293147564E-1,-4.515821338E-1,-9.469938278E-1
1.325547636E0,5.415320396E-1,-4.503603876E-1,-9.457721114E-1
1.327685830E0,5.511531830E-1,-4.479169548E-1,-9.469938278E-1
1.329814686E0,5.597052574E-1,-4.454734921E-1,-9.433286786E-1
1.331940815E0,5.682573915E-1,-4.442517459E-1,-9.396634698E-1
1.334063476E0,5.729916096E-1,-4.393648207E-1,-9.372199774E-1
1.336189615E0,5.839871764E-1,-4.332561791E-1,-9.335548282E-1
1.338316202E0,5.913175344E-1,-4.247040749E-1,-9.323330522E-1
1.340441426E0,5.984952450E-1,-4.124867618E-1,-9.286679029E-1
1.342564045E0,6.094908118E-1,-3.990477324E-1,-9.262244105E-1
1.344680724E0,6.192646623E-1,-3.845396638E-1,-9.250026941E-1
1.346818094E0,6.276640296E-1,-3.698789179E-1,-9.237809777E-1
1.348943908E0,6.374378800E-1,-3.564398587E-1,-9.250026941E-1
1.351072590E0,6.447682381E-1,-3.407101035E-1,-9.262244105E-1
1.353193481E0,6.531676650E-1,-3.272710443E-1,-9.286679029E-1
1.355313059E0,6.604980230E-1,-3.162754774E-1,-9.312640429E-1
1.357447600E0,6.714936495E-1,-3.017674387E-1,-9.349292517E-1
1.359573343E0,6.812674403E-1,-2.895501256E-1,-9.410378933E-1
1.361697682E0,6.896668673E-1,-2.748893499E-1,-9.459248185E-1
1.363811279E0,7.006624341E-1,-2.640464902E-1,-9.532552361E-1
1.365950317E0,7.092145681E-1,-2.518292069E-1,-9.593638778E-1
1.368076181E0,7.202101350E-1,-2.444988191E-1,-9.666942358E-1
1.370205525E0,7.299839854E-1,-2.422080636E-1,-9.764680862E-1
1.372328979E0,7.444919944E-1,-2.360994220E-1,-9.860892296E-1
1.374451721E0,7.542658448E-1,-2.373211533E-1,-9.958630800E-1
1.376564697E0,7.652614117E-1,-2.397646159E-1,-1.003193498E0
1.378691934E0,7.750352621E-1,-2.483167201E-1,-1.014189005E0
1.380830728E0,7.848091125E-1,-2.580905557E-1,-1.022588372E0
1.382959656E0,7.945829630E-1,-2.689334154E-1,-1.031140566E0
1.385084890E0,8.042041063E-1,-2.823724449E-1,-1.042136073E0
1.387205281E0,8.139779568E-1,-2.970332205E-1,-1.052978992E0
1.389335246E0,8.213083148E-1,-3.080287874E-1,-1.065196276E0
1.391460418E0,8.286387324E-1,-3.153591752E-1,-1.077413559E0
1.393586711E0,8.347473741E-1,-3.226895630E-1,-1.088409185E0
1.395711253E0,8.385652900E-1,-3.312416673E-1,-1.098030329E0
1.397837250E0,8.410087228E-1,-3.373503387E-1,-1.106582403E0
1.399963063E0,8.434522152E-1,-3.434589803E-1,-1.113912821E0
1.402085388E0,8.422304392E-1,-3.446807265E-1,-1.120021462E0
1.404199220E0,8.422304392E-1,-3.471241891E-1,-1.123686671E0
1.406330293E0,8.373435140E-1,-3.446807265E-1,-1.126130104E0
1.408453288E0,8.324565887E-1,-3.410155177E-1,-1.123686671E0
1.410595845E0,8.239045143E-1,-3.324634135E-1,-1.117577910E0
1.412719808E0,8.141306639E-1,-3.287982047E-1,-1.111621976E0
1.414846904E0,8.045095205E-1,-3.226895630E-1,-1.099404693E0
1.416969452E0,7.971791625E-1,-3.153591752E-1,-1.088409185E0
1.419095215E0,7.837401032E-1,-3.080287874E-1,-1.070083141E0
1.421221355E0,7.715228200E-1,-2.994766831E-1,-1.051909924E0
1.423348319E0,7.556403279E-1,-2.933680415E-1,-1.031140566E0
1.425467093E0,7.397578359E-1,-2.884811163E-1,-1.008080363E0
1.427575776E0,7.238753438E-1,-2.883284092E-1,-9.812023044E-1
1.429723867E0,7.067710757E-1,-2.871066630E-1,-9.543242455E-1
1.431849987E0,6.884451509E-1,-2.871066630E-1,-9.251554012E-1
1.433981508E0,6.688974500E-1,-2.846632004E-1,-8.958339095E-1
1.436101503E0,6.505714655E-1,-2.832887471E-1,-8.652906418E-1
1.438227672E0,6.346889734E-1,-2.832887471E-1,-8.385652900E-1
1.440354656E0,6.151412725E-1,-2.808452845E-1,-8.116871715E-1
1.442480155E0,5.969680548E-1,-2.806925774E-1,-7.874053121E-1
1.444605104E0,5.798638463E-1,-2.794708610E-1,-7.654141784E-1
1.446730277E0,5.615378618E-1,-2.758056521E-1,-7.470881939E-1
1.448856101E0,5.444336534E-1,-2.721404731E-1,-7.350236177E-1
1.450982118E0,5.250386596E-1,-2.709187269E-1,-7.252497673E-1
1.453107627E0,5.079344511E-1,-2.696970105E-1,-7.179193497E-1
1.455232170E0,4.909829497E-1,-2.660318017E-1,-7.228062749E-1
1.457357586E0,4.728097022E-1,-2.637410760E-1,-7.875580192E-1
1.459485516E0,4.596760869E-1,-2.614503205E-1,-8.669704795E-1
1.461611726E0,4.500549734E-1,-2.495384514E-1,-9.195048809E-1
1.463737470E0,4.418082833E-1,-2.399173230E-1,-1.009912968E0
1.465858655E0,4.309654236E-1,-2.229658216E-1,-1.046564937E0
1.467972169E0,4.273002446E-1,-2.522873580E-1,-1.045343161E0
1.470114311E0,4.199698567E-1,-2.751947939E-1,-1.006247759E0
1.472240297E0,4.161519408E-1,-2.970332205E-1,-9.500481486E-1
1.474367689E0,4.147774875E-1,-3.017674387E-1,-8.901833892E-1
1.476480665E0,4.109596014E-1,-2.991712391E-1,-8.413141370E-1
1.478625195E0,4.060726762E-1,-2.857322097E-1,-8.023715019E-1
1.480743278E0,3.998112977E-1,-2.649627924E-1,-7.730499506E-1
1.482872795E0,3.937026560E-1,-2.296853364E-1,-7.597636580E-1
1.484993035E0,3.814853430E-1,-1.895209402E-1,-7.525860071E-1
1.487117372E0,3.680463135E-1,-1.566869318E-1,-7.440338731E-1
1.489233492E0,3.572034538E-1,-1.298088580E-1,-7.319692969E-1
1.491373273E0,3.388774991E-1,-1.128573567E-1,-7.209737301E-1
1.493498141E0,3.242167234E-1,-9.941831976E-2,-7.064656615E-1
1.495631045E0,3.132211566E-1,-8.597928286E-2,-6.893614531E-1
1.497761243E0,3.022255898E-1,-7.131851465E-2,-6.748533845E-1
1.499864168E0,2.912299931E-1,-6.276640296E-2,-6.589708924E-1
1.501998691E0,2.838996351E-1,-5.054909736E-2,-6.479753256E-1
1.504113487E0,2.777909636E-1,-4.077525437E-2,-6.407976151E-1
1.506256443E0,2.753475010E-1,-2.871066704E-2,-6.346889734E-1
1.508379886E0,2.680171132E-1,-2.382374369E-2,-6.273586154E-1
1.510504794E0,2.631302178E-1,-1.893682219E-2,-6.249151230E-1
1.512614230E0,2.606867552E-1,-1.649336144E-2,-6.322455406E-1
1.514742943E0,2.571742535E-1,-1.282817032E-2,-6.432411075E-1
1.516877832E0,2.571742535E-1,-1.282817032E-2,-6.530149579E-1
1.518994642E0,2.559525371E-1,-1.282817032E-2,-6.615670323E-1
1.521136620E0,2.535090744E-1,-1.542434748E-2,-6.713408828E-1
1.523259453E0,2.547308207E-1,-2.153299935E-2,-6.811147332E-1
1.525390069E0,2.524400651E-1,-2.764165215E-2,-6.884451509E-1
1.527510878E0,2.536617815E-1,-3.359758854E-2,-6.957755089E-1
1.529636620E0,2.573269904E-1,-3.970624134E-2,-7.031059265E-1
1.531762140E0,2.634356320E-1,-4.825835302E-2,-7.102835774E-1
1.533888116E0,2.732094824E-1,-5.558873713E-2,-7.200574279E-1
1.536013930E0,2.877175212E-1,-6.291911751E-2,-7.286095023E-1
1.538135715E0,3.036000133E-1,-7.269296050E-2,-7.382306457E-1
1.540253341E0,3.231477141E-1,-8.613199741E-2,-7.455610037E-1
1.542406478E0,3.486513495E-1,-9.941831976E-2,-7.551821470E-1
1.544517185E0,3.706424832E-1,-1.153008118E-1,-7.649559975E-1
1.546647322E0,3.961461186E-1,-1.299615800E-1,-7.745771408E-1
1.548764998E0,4.240931869E-1,-1.469130963E-1,-7.843509912E-1
1.550894525E0,4.497495294E-1,-1.664607823E-1,-7.939720750E-1
1.553020288E0,4.740314186E-1,-1.882992089E-1,-8.035932183E-1
1.555149479E0,5.117523670E-1,-2.041817009E-1,-8.133670688E-1
1.557283064E0,5.410739183E-1,-2.223549485E-1,-8.229882121E-1
1.559384475E0,5.726861954E-1,-2.443460971E-1,-8.338310719E-1
1.561519068E0,6.116288304E-1,-2.590068579E-1,-8.458956480E-1
1.563645065E0,6.420193911E-1,-2.698497176E-1,-8.581129313E-1
1.565778163E0,6.725626588E-1,-2.857322097E-1,-8.701775670E-1
1.567902155E0,7.066183686E-1,-3.028364480E-1,-8.822421432E-1
1.570026911E0,7.406741381E-1,-3.185662329E-1,-8.944594264E-1
1.572148747E0,7.698429227E-1,-3.332269788E-1,-9.053022861E-1
1.574278539E0,8.016079068E-1,-3.430008292E-1,-9.175195694E-1
1.576405065E0,8.332201838E-1,-3.491095006E-1,-9.308059216E-1
1.578528467E0,8.636107445E-1,-3.576616049E-1,-9.440922141E-1
1.580639561E0,8.904888034E-1,-3.660610020E-1,-9.550877810E-1
1.582769628E0,9.172141552E-1,-3.709479272E-1,-9.671524167E-1
1.584906927E0,9.416487813E-1,-3.770565689E-1,-9.805914164E-1
1.587036412E0,9.671524167E-1,-3.843869567E-1,-9.928087592E-1
1.589162185E0,9.879218340E-1,-3.929390609E-1,-1.003651619E0
1.591284866E0,1.004873276E0,-3.990477324E-1,-1.014647126E0
1.593411352E0,1.019534111E0,-4.039346576E-1,-1.023046613E0
1.595536199E0,1.031751394E0,-4.063780904E-1,-1.032820463E0
1.597662246E0,1.040303469E0,-4.063780904E-1,-1.042594314E0
1.599788030E0,1.046412110E0,-4.100432992E-1,-1.049924612E0
1.601915766E0,1.050077319E0,-4.088215530E-1,-1.054811597E0
1.604039353E0,1.050077319E0,-4.124867618E-1,-1.058476806E0
1.606165177E0,1.048855662E0,-4.149302244E-1,-1.062141895E0
1.608290675E0,1.040303469E0,-4.185954034E-1,-1.063363671E0
1.610417760E0,1.032973170E0,-4.173736870E-1,-1.064585447E0
1.612542680E0,1.023352027E0,-4.161519408E-1,-1.064585447E0
1.614668666E0,1.014799833E0,-4.137084782E-1,-1.065807104E0
1.616793951E0,1.002582550E0,-4.101960063E-1,-1.067028880E0
1.618919988E0,9.868528247E-1,-4.053090811E-1,-1.064738154E0
1.621045162E0,9.721920490E-1,-3.955352604E-1,-1.063516378E0
1.623169551E0,9.564622641E-1,-3.918700516E-1,-1.062294602E0
1.625297604E0,9.381362796E-1,-3.894265890E-1,-1.059851170E0
1.627424129E0,9.187413454E-1,-3.857614100E-1,-1.058782220E0
1.629545721E0,8.967501521E-1,-3.834706545E-1,-1.055117011E0
1.631660356E0,8.749117255E-1,-3.798054755E-1,-1.053895235E0
1.633800442E0,8.516988754E-1,-3.785837293E-1,-1.050382733E0
1.635926378E0,8.286387324E-1,-3.761402667E-1,-1.046717644E0
1.638055873E0,8.043568134E-1,-3.773620129E-1,-1.043052435E0
1.640177801E0,7.776314616E-1,-3.785837293E-1,-1.039539933E0
1.642300655E0,7.544185519E-1,-3.773620129E-1,-1.035874724E0
1.644417670E0,7.313584089E-1,-3.724750876E-1,-1.032209516E0
1.646556515E0,7.058547735E-1,-3.688098788E-1,-1.028697014E0
1.648681525E0,6.814202070E-1,-3.591887653E-1,-1.025031924E0
1.650809872E0,6.608034968E-1,-3.506366611E-1,-1.023810148E0
1.652932288E0,6.400340796E-1,-3.396410644E-1,-1.022741079E0
1.655058356E0,6.206390858E-1,-3.263547719E-1,-1.022741079E0
1.657184393E0,5.998696685E-1,-3.165809214E-1,-1.021672130E0
1.659310289E0,5.816964507E-1,-3.080287874E-1,-1.020450354E0
1.661433611E0,5.647448897E-1,-2.994766831E-1,-1.022893906E0
1.663543088E0,5.476406813E-1,-2.910772860E-1,-1.024268270E0
1.665661455E0,5.354233980E-1,-2.825251818E-1,-1.025490046E0
1.667797644E0,5.209153295E-1,-2.739730477E-1,-1.027933478E0
1.669942400E0,5.074763298E-1,-2.680171132E-1,-1.030376911E0
1.672070798E0,4.954117239E-1,-2.606867552E-1,-1.034194827E0
1.674192410E0,4.880813360E-1,-2.521346211E-1,-1.037860036E0
1.676308652E0,4.831944108E-1,-2.435825169E-1,-1.043968678E0
1.678443285E0,4.770857692E-1,-2.364048511E-1,-1.048855662E0
1.680567919E0,4.783074856E-1,-2.290744632E-1,-1.052520871E0
1.682693132E0,4.795292318E-1,-2.266310006E-1,-1.054964304E0
1.684806872E0,4.795292318E-1,-2.290744632E-1,-1.058629513E0
1.686944028E0,4.831944108E-1,-2.315179259E-1,-1.062294602E0
1.689071184E0,4.905247986E-1,-2.425135076E-1,-1.064738154E0
1.691200081E0,4.978551865E-1,-2.486221492E-1,-1.068403363E0
1.693323403E0,5.051855445E-1,-2.594650090E-1,-1.071915746E0
1.695449572E0,5.186246037E-1,-2.692388594E-1,-1.074359298E0
1.697574429E0,5.294674635E-1,-2.802344263E-1,-1.078024387E0
1.699700436E0,5.465716720E-1,-2.875648141E-1,-1.083980322E0
1.701825702E0,5.636758804E-1,-2.948952019E-1,-1.088867307E0
1.703947528E0,5.806274414E-1,-3.020728528E-1,-1.093754172E0
1.706060809E0,5.989533663E-1,-3.081815243E-1,-1.098488450E0
1.708200131E0,6.195700765E-1,-3.167336285E-1,-1.103375316E0
1.710313240E0,6.366742849E-1,-3.228422701E-1,-1.107040524E0
1.712447538E0,6.572909951E-1,-3.338378668E-1,-1.110553026E0
1.714582121E0,6.768386960E-1,-3.446807265E-1,-1.110553026E0
1.716709980E0,6.937901974E-1,-3.544545472E-1,-1.112996459E0
1.718835265E0,7.108944058E-1,-3.689626157E-1,-1.115287185E0
1.720957681E0,7.278459668E-1,-3.811798990E-1,-1.115287185E0
1.723083871E0,7.449501753E-1,-3.921754956E-1,-1.113912821E0
1.725205545E0,7.594582438E-1,-4.017966092E-1,-1.115134478E0
1.727319425E0,7.741189599E-1,-4.103487432E-1,-1.116356254E0
1.729462349E0,7.851145267E-1,-4.189008474E-1,-1.117425203E0
1.731587167E0,7.971791625E-1,-4.237877727E-1,-1.119868755E0
1.733717274E0,8.081747293E-1,-4.298964143E-1,-1.122312188E0
1.735841562E0,8.155050874E-1,-4.335615933E-1,-1.124755621E0
1.737977008E0,8.228355050E-1,-4.395175576E-1,-1.125977397E0
1.740090321E0,8.277224302E-1,-4.395175576E-1,-1.127199054E0
1.742215981E0,8.301658630E-1,-4.419609904E-1,-1.127199054E0
1.744339019E0,8.338310719E-1,-4.431827366E-1,-1.128420830E0
1.746465545E0,8.350527883E-1,-4.444044530E-1,-1.129489779E0
1.748580962E0,8.361217976E-1,-4.431827366E-1,-1.128268123E0
1.750719277E0,8.313875794E-1,-4.407392740E-1,-1.128420830E0
1.752844817E0,8.265006542E-1,-4.395175576E-1,-1.128420830E0
1.754970865E0,8.203920126E-1,-4.382958114E-1,-1.127199054E0
1.757083759E0,8.142833710E-1,-4.360050559E-1,-1.125977397E0
1.759222401E0,8.093964458E-1,-4.298964143E-1,-1.122312188E0
1.761348561E0,8.057312369E-1,-4.201225638E-1,-1.119868755E0
1.763478180E0,7.947356701E-1,-4.091269970E-1,-1.116356254E0
1.765596516E0,7.875580192E-1,-3.969096839E-1,-1.111469269E0
1.767715494E0,7.802276611E-1,-3.860668242E-1,-1.105360627E0
1.769863158E0,7.680103183E-1,-3.811798990E-1,-1.094365120E0
1.771977183E0,7.545713186E-1,-3.798054755E-1,-1.077413559E0
1.774106343E0,7.399105430E-1,-3.761402667E-1,-1.059087634E0
1.776226146E0,7.252497673E-1,-3.761402667E-1,-1.038318157E0
1.778354919E0,7.105889916E-1,-3.749185503E-1,-1.016479731E0
1.780481659E0,6.959282160E-1,-3.736968040E-1,-9.944885969E-1
1.782607167E0,6.800457239E-1,-3.711006343E-1,-9.749409556E-1
1.784732249E0,6.655376554E-1,-3.662137091E-1,-9.567676783E-1
1.786856710E0,6.496551633E-1,-3.601050675E-1,-9.396634698E-1
1.788976736E0,6.374378800E-1,-3.515529633E-1,-9.274461865E-1
1.791096151E0,6.276640296E-1,-3.431535661E-1,-9.190467596E-1
1.793235097E0,6.178901792E-1,-3.333797157E-1,-9.141598344E-1
1.795362010E0,6.081163287E-1,-3.223841190E-1,-9.104946256E-1
1.797491088E0,6.021603942E-1,-3.126102984E-1,-9.104946256E-1
1.799612579E0,5.948300362E-1,-3.042109013E-1,-9.118691087E-1
1.801738261E0,5.874996781E-1,-2.981022298E-1,-9.130908251E-1
1.803863892E0,5.813909769E-1,-2.907718420E-1,-9.155342579E-1
1.805989828E0,5.729916096E-1,-2.834414840E-1,-9.191994667E-1
1.808115784E0,5.693264008E-1,-2.750420868E-1,-9.240863919E-1
1.810241486E0,5.644394755E-1,-2.677116990E-1,-9.301950336E-1
1.812367585E0,5.607742667E-1,-2.640464902E-1,-9.338602424E-1
1.814494090E0,5.571091175E-1,-2.554943860E-1,-9.376781583E-1
1.816617697E0,5.546656251E-1,-2.483167201E-1,-9.401215911E-1
1.818739858E0,5.558874011E-1,-2.422080636E-1,-9.437867999E-1
1.820870179E0,5.558874011E-1,-2.360994220E-1,-9.474520087E-1
1.822996206E0,5.583308339E-1,-2.348776907E-1,-9.523389339E-1
1.825123231E0,5.595525503E-1,-2.324342281E-1,-9.572258592E-1
1.827247864E0,5.632177591E-1,-2.251038402E-1,-9.633345008E-1
1.829373973E0,5.668829679E-1,-2.263255715E-1,-9.682214260E-1
1.831500500E0,5.729916096E-1,-2.287690341E-1,-9.731083512E-1
1.833625306E0,5.754350424E-1,-2.324342281E-1,-9.779952765E-1
1.835751364E0,5.778785348E-1,-2.312124968E-1,-9.804387093E-1
1.837878510E0,5.827654600E-1,-2.277000248E-1,-9.828822017E-1
1.840008576E0,5.852088928E-1,-2.289217561E-1,-9.863946438E-1
1.842128317E0,5.900958180E-1,-2.325869352E-1,-9.876163602E-1
1.844254070E0,5.925393105E-1,-2.409863323E-1,-9.900598526E-1
1.846378705E0,5.925393105E-1,-2.446515262E-1,-9.888381362E-1
1.848506990E0,5.962044597E-1,-2.434297949E-1,-9.888381362E-1
1.850632651E0,5.986479521E-1,-2.422080636E-1,-9.900598526E-1
1.852757387E0,6.010913849E-1,-2.446515262E-1,-9.912815690E-1
1.854882957E0,5.986479521E-1,-2.483167201E-1,-9.925032854E-1
1.857008566E0,5.998696685E-1,-2.556470931E-1,-9.925032854E-1
1.859131522E0,5.986479521E-1,-2.666426897E-1,-9.900598526E-1
1.861247560E0,5.949827433E-1,-2.738203406E-1,-9.876163602E-1
1.863386701E0,5.937610269E-1,-2.774855494E-1,-9.851729274E-1
1.865513226E0,5.876523852E-1,-2.848159075E-1,-9.815077186E-1
1.867641257E0,5.815436840E-1,-2.970332205E-1,-9.764680862E-1
1.869760714E0,5.754350424E-1,-3.115412891E-1,-9.715811610E-1
1.871876223E0,5.682573915E-1,-3.200933933E-1,-9.666942358E-1
1.874015607E0,5.609270334E-1,-3.249803185E-1,-9.605855942E-1
1.876141116E0,5.535966158E-1,-3.298672438E-1,-9.544769526E-1
1.878266827E0,5.450445414E-1,-3.335324228E-1,-9.495900273E-1
1.880376517E0,5.352706909E-1,-3.419318199E-1,-9.424123764E-1
1.882504264E0,5.328271985E-1,-3.480404615E-1,-9.361509681E-1
1.884634443E0,5.242751241E-1,-3.431535661E-1,-9.301950336E-1
1.886773491E0,5.181664228E-1,-3.370448947E-1,-9.228646755E-1
1.888895744E0,5.122104883E-1,-3.297145069E-1,-9.167560339E-1
1.891008822E0,5.048801303E-1,-3.260493279E-1,-9.082038999E-1
1.893135877E0,4.987714589E-1,-3.272710443E-1,-9.033169746E-1
1.895273309E0,4.926628172E-1,-3.272710443E-1,-8.935431242E-1
1.897402732E0,4.889976382E-1,-3.199406862E-1,-8.863654733E-1
1.899530581E0,4.841107130E-1,-3.065016270E-1,-8.802568316E-1
1.901654758E0,4.816672504E-1,-2.944370508E-1,-8.741481900E-1
1.903763197E0,4.792237878E-1,-2.846632004E-1,-8.680394888E-1
1.905902011E0,4.755585790E-1,-2.809980214E-1,-8.620835543E-1
1.908026166E0,4.741841555E-1,-2.785545588E-1,-8.559749126E-1
1.910157168E0,4.706716835E-1,-2.736676335E-1,-8.510879874E-1
1.912279534E0,4.705189466E-1,-2.626720667E-1,-8.474228382E-1
1.914405653E0,4.717406929E-1,-2.516764700E-1,-8.400924206E-1
1.916532434E0,4.741841555E-1,-2.443460971E-1,-8.364272118E-1
1.918658186E0,4.717406929E-1,-2.406809032E-1,-8.339837790E-1
1.920786695E0,4.717406929E-1,-2.394591719E-1,-8.303185701E-1
1.922921959E0,4.754058719E-1,-2.345722616E-1,-8.254316449E-1
1.925034142E0,4.741841555E-1,-2.261728644E-1,-8.219192028E-1
1.927160098E0,4.766276181E-1,-2.163990140E-1,-8.158105612E-1
1.929282504E0,4.776966274E-1,-2.102903575E-1,-8.109236360E-1
1.931412093E0,4.776966274E-1,-2.066251636E-1,-8.048149347E-1
1.933538598E0,4.789183438E-1,-2.005165219E-1,-7.999280095E-1
1.935663446E0,4.776966274E-1,-1.931861341E-1,-7.938193679E-1
1.937789503E0,4.776966274E-1,-1.919644028E-1,-7.889324427E-1
1.939914697E0,4.740314186E-1,-1.907426715E-1,-7.828238010E-1
1.942038415E0,4.728097022E-1,-1.834122837E-1,-7.780895829E-1
1.944153924E0,4.691445231E-1,-1.785253733E-1,-7.719809413E-1
1.946279464E0,4.691445231E-1,-1.736384481E-1,-7.683157325E-1
1.948418380E0,4.667010605E-1,-1.711949855E-1,-7.634288669E-1
1.950547245E0,4.630358517E-1,-1.711949855E-1,-7.597636580E-1
1.952672174E0,4.618141353E-1,-1.687515229E-1,-7.524332404E-1
1.954791976E0,4.593706727E-1,-1.675297916E-1,-7.524332404E-1
1.956921137E0,4.569272101E-1,-1.650863290E-1,-7.475463152E-1
1.959047011E0,4.557054639E-1,-1.675297916E-1,-7.438811660E-1
1.961173761E0,4.557054639E-1,-1.663080603E-1,-7.438811660E-1
1.963295313E0,4.544837475E-1,-1.650863290E-1,-7.414376736E-1
1.965411738E0,4.544837475E-1,-1.614211351E-1,-7.402159572E-1
1.967551314E0,4.544837475E-1,-1.601994038E-1,-7.389942408E-1
1.969676192E0,4.532620013E-1,-1.638645977E-1,-7.389942408E-1
1.971805516E0,4.532620013E-1,-1.626428664E-1,-7.389942408E-1
1.973929316E0,4.544837475E-1,-1.601994038E-1,-7.389942408E-1
1.976061019E0,4.520402849E-1,-1.528690308E-1,-7.402159572E-1
1.978182998E0,4.544837475E-1,-1.540907621E-1,-7.402159572E-1
1.980319452E0,4.544837475E-1,-1.577559561E-1,-7.402159572E-1
1.982429204E0,4.532620013E-1,-1.565342247E-1,-7.389942408E-1
1.984557836E0,4.557054639E-1,-1.540907621E-1,-7.377725244E-1
1.986679957E0,4.544837475E-1,-1.540907621E-1,-7.365507483E-1
1.988805099E0,4.569272101E-1,-1.528690308E-1,-7.353290319E-1
1.990920568E0,4.569272101E-1,-1.577559561E-1,-7.328855991E-1
1.993059504E0,4.569272101E-1,-1.638645977E-1,-7.328855991E-1
1.995185563E0,4.593706727E-1,-1.663080603E-1,-7.316638231E-1
1.997314783E0,4.592179358E-1,-1.626428664E-1,-7.304421067E-1
1.999437587E0,4.616613984E-1,-1.614211351E-1,-7.292203903E-1
2.001564051E0,4.604396820E-1,-1.638645977E-1,-7.255551815E-1
2.003691025E0,4.616613984E-1,-1.675297916E-1,-7.231117487E-1
2.005821661E0,4.628831446E-1,-1.747074574E-1,-7.206682563E-1
2.007937393E0,4.628831446E-1,-1.771509200E-1,-7.182248235E-1
2.010051895E0,4.653266072E-1,-1.783726513E-1,-7.157813311E-1
2.012173956E0,4.653266072E-1,-1.820378453E-1,-7.121161819E-1
2.014304948E0,4.653266072E-1,-1.832595766E-1,-7.096726894E-1
2.016446855E0,4.665483236E-1,-1.844813079E-1,-7.072292566E-1
2.018573543E0,4.702135324E-1,-1.832595766E-1,-7.035640478E-1
2.020698482E0,4.702135324E-1,-1.795943826E-1,-7.011205554E-1
2.022821101E0,4.714352489E-1,-1.759291887E-1,-6.962336898E-1
2.024943284E0,4.714352489E-1,-1.734857261E-1,-6.925684810E-1
2.027059463E0,4.725042582E-1,-1.722639948E-1,-6.889032722E-1
2.029198319E0,4.749477208E-1,-1.722639948E-1,-6.864598393E-1
2.031323960E0,4.737260044E-1,-1.734857261E-1,-6.827946305E-1
2.033453396E0,4.749477208E-1,-1.783726513E-1,-6.791294217E-1
2.035576687E0,4.749477208E-1,-1.831068546E-1,-6.742424965E-1
2.037701585E0,4.725042582E-1,-1.855503172E-1,-6.717990637E-1
2.039827490E0,4.712825418E-1,-1.855503172E-1,-6.656904221E-1
2.041952826E0,4.688390791E-1,-1.867720485E-1,-6.632469296E-1
2.044078823E0,4.663956165E-1,-1.892155111E-1,-6.583600044E-1
2.046203661E0,4.627304375E-1,-1.843285859E-1,-6.559165716E-1
2.048323767E0,4.590652287E-1,-1.831068546E-1,-6.522513628E-1
2.050445258E0,4.541783035E-1,-1.806633919E-1,-6.485861540E-1
2.052583310E0,4.492913783E-1,-1.745547503E-1,-6.438519955E-1
2.054709887E0,4.456261992E-1,-1.708895564E-1,-6.389650702E-1
2.056836656E0,4.384485185E-1,-1.660026312E-1,-6.328563690E-1
2.058959245E0,4.323398769E-1,-1.635591686E-1,-6.279694438E-1
2.061085141E0,4.237877727E-1,-1.623374373E-1,-6.218608022E-1
2.063211361E0,4.164573848E-1,-1.647808999E-1,-6.157521605E-1
2.065336717E0,4.091269970E-1,-1.672243625E-1,-6.120869517E-1
2.067463334E0,3.993531466E-1,-1.660026312E-1,-6.049093008E-1
2.069587959E0,3.895792961E-1,-1.635591686E-1,-6.000223756E-1
2.071701759E0,3.787364662E-1,-1.623374373E-1,-5.926920176E-1
2.073840257E0,3.677408695E-1,-1.586722434E-1,-5.878050923E-1
2.075965136E0,3.567453027E-1,-1.537853181E-1,-5.804746747E-1
2.078095150E0,3.457497358E-1,-1.501201391E-1,-5.745187402E-1
2.080219001E0,3.336851299E-1,-1.476766765E-1,-5.671883821E-1
2.082343259E0,3.226895630E-1,-1.464549452E-1,-5.610797405E-1
2.084469328E0,3.104722500E-1,-1.415680200E-1,-5.537493229E-1
2.086595813E0,2.958115041E-1,-1.403462887E-1,-5.451972485E-1
2.088717078E0,2.837468982E-1,-1.403462887E-1,-5.380195379E-1
2.090832740E0,2.715296149E-1,-1.366810948E-1,-5.306891799E-1
2.092971809E0,2.580905557E-1,-1.354593635E-1,-5.221370459E-1
2.095097949E0,2.446515262E-1,-1.342376322E-1,-5.148066878E-1
2.097227068E0,2.338086665E-1,-1.305724531E-1,-5.076290369E-1
2.099349434E0,2.203696370E-1,-1.269072592E-1,-5.027421117E-1
2.101475563E0,2.069306076E-1,-1.256855279E-1,-4.966334403E-1
2.103602292E0,2.008219510E-1,-1.195768714E-1,-4.929682612E-1
2.105726885E0,1.887573600E-1,-1.136209369E-1,-4.880813360E-1
2.107849637E0,1.814269722E-1,-1.087340117E-1,-4.845688641E-1
2.109962237E0,1.740965992E-1,-1.050688252E-1,-4.809036553E-1
2.112093158E0,1.704314053E-1,-1.014036313E-1,-4.796819389E-1
2.114230294E0,1.655444801E-1,-9.773843735E-2,-4.760167301E-1
2.116359139E0,1.594358236E-1,-9.773843735E-2,-4.735732675E-1
2.118484759E0,1.557706445E-1,-9.773843735E-2,-4.699080884E-1
2.120608681E0,1.545489132E-1,-1.026253626E-1,-4.662429094E-1
2.122734394E0,1.545489132E-1,-1.073595658E-1,-4.650211632E-1
2.124859393E0,1.521054506E-1,-1.110247597E-1,-4.625777006E-1
2.126984647E0,1.508837193E-1,-1.159116775E-1,-4.576907754E-1
2.129108620E0,1.496619880E-1,-1.220203340E-1,-4.564690590E-1
2.131226184E0,1.521054506E-1,-1.244637966E-1,-4.552473128E-1
2.133345864E0,1.521054506E-1,-1.256855279E-1,-4.540255964E-1
2.135472869E0,1.545489132E-1,-1.269072592E-1,-4.540255964E-1
2.137606911E0,1.569923609E-1,-1.269072592E-1,-4.528038502E-1
2.139743111E0,1.582140923E-1,-1.244637966E-1,-4.528038502E-1
2.141868997E0,1.618792862E-1,-1.256855279E-1,-4.540255964E-1
2.143993407E0,1.618792862E-1,-1.269072592E-1,-4.528038502E-1
2.146116882E0,1.631010175E-1,-1.256855279E-1,-4.540255964E-1
2.148242725E0,1.631010175E-1,-1.293507218E-1,-4.528038502E-1
2.150363208E0,1.655444801E-1,-1.293507218E-1,-4.528038502E-1
2.152473235E0,1.643227488E-1,-1.317941695E-1,-4.528038502E-1
2.154621266E0,1.679879427E-1,-1.317941695E-1,-4.528038502E-1
2.156741129E0,1.679879427E-1,-1.354593635E-1,-4.540255964E-1
2.158853779E0,1.679879427E-1,-1.342376322E-1,-4.540255964E-1
2.160984231E0,1.704314053E-1,-1.342376322E-1,-4.552473128E-1
2.163123443E0,1.692096740E-1,-1.317941695E-1,-4.552473128E-1
2.165254353E0,1.716531366E-1,-1.281289905E-1,-4.564690590E-1
2.167378742E0,1.728748679E-1,-1.256855279E-1,-4.576907754E-1
2.169501484E0,1.740965992E-1,-1.220203340E-1,-4.576907754E-1
2.171624653E0,1.753183305E-1,-1.207986027E-1,-4.589125216E-1
2.173740966E0,1.765400618E-1,-1.183551401E-1,-4.589125216E-1
2.175878021E0,1.765400618E-1,-1.183551401E-1,-4.576907754E-1
2.178003722E0,1.763873398E-1,-1.195768714E-1,-4.564690590E-1
2.180132557E0,1.751656085E-1,-1.183551401E-1,-4.540255964E-1
2.182255523E0,1.763873398E-1,-1.159116775E-1,-4.515821338E-1
2.184381286E0,1.763873398E-1,-1.171334088E-1,-4.479169548E-1
2.186507568E0,1.751656085E-1,-1.171334088E-1,-4.442517459E-1
2.188628773E0,1.763873398E-1,-1.220203340E-1,-4.381431043E-1
2.190735819E0,1.763873398E-1,-1.267545372E-1,-4.344778955E-1
2.192873840E0,1.751656085E-1,-1.328631938E-1,-4.295909703E-1
2.195010163E0,1.739438772E-1,-1.389718503E-1,-4.247040749E-1
2.197141164E0,1.727221459E-1,-1.499674171E-1,-4.196644127E-1
2.199264465E0,1.739438772E-1,-1.571450830E-1,-4.147774875E-1
2.201387664E0,1.715004146E-1,-1.644754708E-1,-4.098905921E-1
2.203513794E0,1.690569520E-1,-1.705841124E-1,-4.025602043E-1
2.205640340E0,1.702786833E-1,-1.779145002E-1,-3.988949955E-1
2.207762186E0,1.678352207E-1,-1.826487035E-1,-3.927863538E-1
2.209874593E0,1.690569520E-1,-1.899790913E-1,-3.878994286E-1
2.212002401E0,1.715004146E-1,-1.960877478E-1,-3.842342496E-1
2.214138235E0,1.715004146E-1,-1.997529417E-1,-3.805690408E-1
2.216271505E0,1.727221459E-1,-2.046398520E-1,-3.793473244E-1
2.218397237E0,1.751656085E-1,-2.130392492E-1,-3.793473244E-1
2.220521342E0,1.763873398E-1,-2.130392492E-1,-3.805690408E-1
2.222646566E0,1.811215430E-1,-2.107485086E-1,-3.842342496E-1
2.224771435E0,1.835650057E-1,-2.119702399E-1,-3.878994286E-1
2.226897116E0,1.872301996E-1,-2.119702399E-1,-3.914119005E-1
2.229022675E0,1.908953935E-1,-2.156354338E-1,-3.962988257E-1
2.231148621E0,1.957823038E-1,-2.180788964E-1,-4.024074674E-1
2.233273336E0,1.994474977E-1,-2.217440903E-1,-4.085161388E-1
2.235395214E0,2.031126916E-1,-2.217440903E-1,-4.158465266E-1
2.237526520E0,2.067778856E-1,-2.193006277E-1,-4.231768847E-1
2.239653026E0,2.116648108E-1,-2.156354338E-1,-4.305072725E-1
2.241779258E0,2.105957866E-1,-2.423607856E-1,-4.352414906E-1
2.243905417E0,2.105957866E-1,-2.765692472E-1,-4.437935948E-1
2.246035361E0,2.179261744E-1,-2.425135076E-1,-4.523457289E-1
2.248155142E0,2.203696370E-1,-2.193006277E-1,-4.610505402E-1
2.250281007E0,2.287690341E-1,-1.999056488E-1,-4.708243906E-1
2.252405610E0,2.373211533E-1,-1.815796942E-1,-4.781547785E-1
2.254528851E0,2.409863323E-1,-1.852448881E-1,-4.818199575E-1
2.256639782E0,2.495384514E-1,-1.999056488E-1,-4.828889668E-1
2.258769940E0,2.593123019E-1,-2.170098722E-1,-4.828889668E-1
2.260906811E0,2.629774809E-1,-2.241875380E-1,-4.792237878E-1
2.263026379E0,2.701551616E-1,-2.266310006E-1,-4.767803252E-1
2.265165519E0,2.762638032E-1,-2.205223590E-1,-4.706716835E-1
2.267287354E0,2.811507285E-1,-2.193006277E-1,-4.682282209E-1
2.269416403E0,2.848159075E-1,-2.205223590E-1,-4.645630121E-1
2.271539054E0,2.884811163E-1,-2.290744632E-1,-4.633412957E-1
2.273665672E0,2.895501256E-1,-2.339613885E-1,-4.596760869E-1
2.275787335E0,2.883284092E-1,-2.327396572E-1,-4.584543705E-1
2.277904115E0,2.907718420E-1,-2.278527319E-1,-4.572326243E-1
2.280043164E0,2.895501256E-1,-2.193006277E-1,-4.547891617E-1
2.282167818E0,2.883284092E-1,-2.144137025E-1,-4.511239827E-1
2.284296755E0,2.883284092E-1,-2.070833147E-1,-4.486805201E-1
2.286415133E0,2.883284092E-1,-2.034181207E-1,-4.437935948E-1
2.288529634E0,2.871066630E-1,-2.009746730E-1,-4.401284158E-1
2.290672152E0,2.883284092E-1,-1.985312104E-1,-4.352414906E-1
2.292796959E0,2.846632004E-1,-1.948660165E-1,-4.303545654E-1
2.294923648E0,2.846632004E-1,-1.912008226E-1,-4.242459238E-1
2.297035239E0,2.822197378E-1,-1.912008226E-1,-4.207334518E-1
2.299174268E0,2.822197378E-1,-1.875356287E-1,-4.158465266E-1
2.301299909E0,2.809980214E-1,-1.863138974E-1,-4.121813178E-1
2.303429019E0,2.797762752E-1,-1.850921661E-1,-4.109596014E-1
2.305551791E0,2.809980214E-1,-1.875356287E-1,-4.085161388E-1
2.307678337E0,2.797762752E-1,-1.875356287E-1,-4.072943926E-1
2.309803143E0,2.785545588E-1,-1.899790913E-1,-4.060726762E-1
2.311929263E0,2.773328125E-1,-1.887573600E-1,-4.036292136E-1
2.314054528E0,2.761110961E-1,-1.887573600E-1,-4.036292136E-1
2.316180525E0,2.748893499E-1,-1.875356287E-1,-3.999640048E-1
2.318306216E0,2.724458873E-1,-1.887573600E-1,-3.999640048E-1
2.320432213E0,2.700024247E-1,-1.887573600E-1,-3.987422884E-1
2.322558515E0,2.687807083E-1,-1.887573600E-1,-3.938553631E-1
2.324685072E0,2.675589919E-1,-1.887573600E-1,-3.901901841E-1
2.326810683E0,2.626720667E-1,-1.887573600E-1,-3.865249753E-1
2.328935560E0,2.590068579E-1,-1.850921661E-1,-3.828597963E-1
2.331060804E0,2.553416789E-1,-1.850921661E-1,-3.791945875E-1
2.333186679E0,2.528982162E-1,-1.850921661E-1,-3.755294085E-1
2.335313134E0,2.504547536E-1,-1.814269722E-1,-3.706424832E-1
2.337436842E0,2.467895597E-1,-1.789835095E-1,-3.681990206E-1
2.339554528E0,2.431243658E-1,-1.777617931E-1,-3.645338416E-1
2.341677951E0,2.382374406E-1,-1.765400618E-1,-3.597996235E-1
2.343815942E0,2.357939780E-1,-1.728748679E-1,-3.549126983E-1
2.345943617E0,2.321287990E-1,-1.692096740E-1,-3.512475193E-1
2.348070499E0,2.284636050E-1,-1.643227488E-1,-3.475823104E-1
2.350193190E0,2.260201424E-1,-1.582140923E-1,-3.414736688E-1
2.352319075E0,2.235766798E-1,-1.557706445E-1,-3.353650272E-1
2.354444746E0,2.199114859E-1,-1.496619880E-1,-3.292563558E-1
2.356570764E0,2.162462920E-1,-1.459967941E-1,-3.243694305E-1
2.358692000E0,2.150245607E-1,-1.411098689E-1,-3.184134960E-1
2.360796004E0,2.113593817E-1,-1.350012124E-1,-3.123048544E-1
2.362929865E0,2.089159191E-1,-1.313360333E-1,-3.098613918E-1
2.365073735E0,2.064724565E-1,-1.264491081E-1,-3.061962128E-1
2.367205030E0,2.028072625E-1,-1.227839142E-1,-3.025310040E-1
2.369330021E0,1.991420686E-1,-1.168279797E-1,-3.000875413E-1
2.371451187E0,1.979203373E-1,-1.119410545E-1,-2.976440787E-1
2.373577245E0,1.954768747E-1,-1.070541367E-1,-2.939788997E-1
2.375703750E0,1.918116808E-1,-1.021672115E-1,-2.941316068E-1
2.377828668E0,1.918116808E-1,-9.728029370E-2,-2.904664278E-1
2.379951623E0,1.881465018E-1,-9.483683109E-2,-2.892446816E-1
2.382068201E0,1.869247705E-1,-9.239336848E-2,-2.880229652E-1
2.384206080E0,1.844813079E-1,-8.750644326E-2,-2.868012190E-1
2.386327774E0,1.832595766E-1,-8.384125680E-2,-2.880229652E-1
2.388441024E0,1.832595766E-1,-8.261952549E-2,-2.855795026E-1
2.390566798E0,1.820378453E-1,-8.017606288E-2,-2.831360400E-1
2.392697403E0,1.832595766E-1,-7.651086897E-2,-2.819143236E-1
2.394840470E0,1.820378453E-1,-7.528914511E-2,-2.794708610E-1
2.396964635E0,1.832595766E-1,-7.162395120E-2,-2.758056521E-1
2.399089614E0,1.832595766E-1,-6.811147183E-2,-2.758056521E-1
2.401211695E0,1.844813079E-1,-6.795875728E-2,-2.733621895E-1
2.403337001E0,1.832595766E-1,-6.566801667E-2,-2.696970105E-1
2.405464045E0,1.820378453E-1,-6.322455406E-2,-2.684752643E-1
2.407590032E0,1.832595766E-1,-6.429356337E-2,-2.648100853E-1
2.409716730E0,1.832595766E-1,-6.200282276E-2,-2.635883391E-1
2.411841222E0,1.795943826E-1,-6.185010448E-2,-2.625193298E-1
2.413967128E0,1.832595766E-1,-6.307183951E-2,-2.611449063E-1
2.416092789E0,1.820378453E-1,-6.185010448E-2,-2.611449063E-1
2.418219193E0,1.808161139E-1,-6.062837690E-2,-2.588541508E-1
2.420344458E0,1.795943826E-1,-5.833763257E-2,-2.588541508E-1
2.422466874E0,1.771509200E-1,-5.589416996E-2,-2.576324046E-1
2.424583116E0,1.771509200E-1,-5.345070735E-2,-2.576324046E-1
2.426722866E0,1.747074574E-1,-5.345070735E-2,-2.551889420E-1
2.428847733E0,1.747074574E-1,-5.345070735E-2,-2.527455091E-1
2.430977006E0,1.747074574E-1,-5.467243865E-2,-2.503020465E-1
2.433098985E0,1.710422635E-1,-5.696318299E-2,-2.466368377E-1
2.435224972E0,1.710422635E-1,-5.818491429E-2,-2.429716438E-1
2.437350795E0,1.722639948E-1,-5.696318299E-2,-2.393064648E-1
2.439476537E0,1.722639948E-1,-6.062837690E-2,-2.380847335E-1
2.441604692E0,1.734857261E-1,-6.551529467E-2,-2.344195396E-1
2.443736151E0,1.722639948E-1,-6.918048859E-2,-2.307543457E-1
2.445850145E0,1.710422635E-1,-6.918048859E-2,-2.283108830E-1
2.447980169E0,1.722639948E-1,-6.673702598E-2,-2.246456891E-1
2.450103399E0,1.710422635E-1,-6.673702598E-2,-2.209804952E-1
2.452233903E0,1.710422635E-1,-6.429356337E-2,-2.173153162E-1
2.454363369E0,1.696678251E-1,-6.062837690E-2,-2.136501223E-1
2.456482957E0,1.696678251E-1,-5.696318299E-2,-2.112066597E-1
2.458609168E0,1.684460938E-1,-5.451972410E-2,-2.063197345E-1
2.460734768E0,1.672243625E-1,-5.207626149E-2,-2.026545405E-1
2.462865292E0,1.660026312E-1,-5.085453019E-2,-1.977676302E-1
2.465002082E0,1.660026312E-1,-4.596760869E-2,-1.928807050E-1
2.467114132E0,1.635591686E-1,-4.596760869E-2,-1.879937798E-1
2.469237413E0,1.647808999E-1,-4.474587739E-2,-1.831068546E-1
2.471359717E0,1.635591686E-1,-4.596760869E-2,-1.769981980E-1
2.473488705E0,1.635591686E-1,-4.596760869E-2,-1.733330190E-1
2.475615536E0,1.635591686E-1,-4.718934000E-2,-1.684460938E-1
2.477742010E0,1.635591686E-1,-4.948008433E-2,-1.647808999E-1
2.479866767E0,1.635591686E-1,-5.192354694E-2,-1.623374373E-1
2.481994036E0,1.647808999E-1,-5.070181563E-2,-1.611157060E-1
2.484124224E0,1.660026312E-1,-4.948008433E-2,-1.586722434E-1
2.486244270E0,1.647808999E-1,-5.070181563E-2,-1.537853181E-1
2.488369890E0,1.660026312E-1,-5.192354694E-2,-1.525636017E-1
2.490494199E0,1.672243625E-1,-5.192354694E-2,-1.525636017E-1
2.492621803E0,1.672243625E-1,-5.314527452E-2,-1.501201391E-1
2.494748268E0,1.682933718E-1,-4.948008433E-2,-1.501201391E-1
2.496873177E0,1.682933718E-1,-4.948008433E-2,-1.488984078E-1
2.498997291E0,1.682933718E-1,-4.703662544E-2,-1.488984078E-1
2.501116503E0,1.695151031E-1,-4.214970022E-2,-1.478293836E-1
2.503250903E0,1.719585657E-1,-3.970624134E-2,-1.466076523E-1
2.505376097E0,1.719585657E-1,-3.604105115E-2,-1.453859210E-1
2.507504107E0,1.707368344E-1,-3.237585723E-2,-1.429424733E-1
2.509628009E0,1.719585657E-1,-2.641992271E-2,-1.417207420E-1
2.511751442E0,1.731802970E-1,-2.031126991E-2,-1.392772794E-1
2.513863107E0,1.756237596E-1,-1.420261711E-2,-1.392772794E-1
2.515988340E0,1.744020283E-1,-8.093964309E-3,-1.356120855E-1
2.518117704E0,1.731802970E-1,-7.635815418E-4,-1.343903542E-1
2.520260455E0,1.744020283E-1,2.901609987E-3,-1.307251602E-1
2.522386025E0,1.756237596E-1,9.010262787E-3,-1.295034289E-1
2.524506946E0,1.744020283E-1,1.145372353E-2,-1.270599663E-1
2.526612171E0,1.744020283E-1,1.634064503E-2,-1.246165112E-1
2.528748492E0,1.756237596E-1,1.756237634E-2,-1.211040318E-1
2.530886941E0,1.744020283E-1,2.107485011E-2,-1.211040318E-1
2.533016661E0,1.731802970E-1,1.634064503E-2,-1.198823079E-1
2.535140359E0,1.707368344E-1,1.878410578E-2,-1.174388453E-1
2.537262866E0,1.682933718E-1,1.634064503E-2,-1.162171140E-1
2.539388914E0,1.682933718E-1,1.511891466E-2,-1.149953827E-1
2.541514647E0,1.670716405E-1,1.267545391E-2,-1.125519201E-1
2.543640776E0,1.670716405E-1,6.566801574E-3,-1.088867337E-1
2.545764810E0,1.670716405E-1,2.901609987E-3,-1.087340117E-1
2.547882211E0,1.634064466E-1,-7.635815418E-4,-1.062905490E-1
2.550017984E0,1.597412676E-1,-6.872233935E-3,-1.050688252E-1
2.552143513E0,1.597412676E-1,-1.160643995E-2,-1.026253626E-1
2.554270618E0,1.548543423E-1,-1.771509275E-2,-1.026253626E-1
2.556390217E0,1.548543423E-1,-2.138028294E-2,-1.038470939E-1
2.558521523E0,1.536326110E-1,-2.382374369E-2,-1.038470939E-1
2.560647134E0,1.524108797E-1,-2.504547499E-2,-1.050688252E-1
2.562774983E0,1.511891484E-1,-2.626720630E-2,-1.038470939E-1
2.564898549E0,1.487456858E-1,-2.993239649E-2,-1.038470939E-1
2.567020303E0,1.499674171E-1,-3.115412779E-2,-1.050688252E-1
2.569129353E0,1.475239545E-1,-3.237585723E-2,-1.050688252E-1
2.571262755E0,1.475239545E-1,-3.359758854E-2,-1.050688252E-1
2.573401672E0,1.450804919E-1,-3.237585723E-2,-1.050688252E-1
2.575531758E0,1.438587606E-1,-3.115412779E-2,-1.026253626E-1
2.577655079E0,1.401935667E-1,-2.993239649E-2,-1.001819000E-1
2.579773030E0,1.401935667E-1,-2.993239649E-2,-1.001819000E-1
2.581904937E0,1.377501190E-1,-2.993239649E-2,-9.651670605E-2
2.584031006E0,1.365283877E-1,-2.871066704E-2,-9.407325089E-2
2.586159597E0,1.328631938E-1,-2.626720630E-2,-9.040805697E-2
2.588283742E0,1.328631938E-1,-2.260201424E-2,-8.933904022E-2
2.590388621E0,1.293507218E-1,-2.138028294E-2,-8.811730891E-2
2.592530975E0,1.269072592E-1,-1.893682219E-2,-8.567385375E-2
2.594658549E0,1.220203340E-1,-1.527163107E-2,-8.445212245E-2
2.596791270E0,1.207986027E-1,-1.160643995E-2,-8.445212245E-2
2.598912974E0,1.159116775E-1,-1.160643995E-2,-8.445212245E-2
2.601036997E0,1.134682223E-1,-9.162978269E-3,-8.323039114E-2
2.603162771E0,1.110247597E-1,-6.719517522E-3,-8.200865984E-2
2.605288381E0,1.110247597E-1,-5.497787148E-3,-8.078692853E-2
2.607414205E0,1.085812971E-1,-4.276056774E-3,-7.956519723E-2
2.609539978E0,1.061378345E-1,-3.207042580E-3,-7.834346592E-2
2.611666260E0,1.049161032E-1,-3.054326167E-3,-7.712173462E-2
2.613792959E0,1.036943719E-1,-3.054326167E-3,-7.712173462E-2
2.615917705E0,1.036943719E-1,-3.054326167E-3,-7.467827946E-2
2.618043518E0,1.012509167E-1,-3.054326167E-3,-7.467827946E-2
2.620168905E0,1.000291854E-1,-3.054326167E-3,-7.467827946E-2
2.622295014E0,9.758572280E-2,4.581489484E-4,-7.590000331E-2
2.624420705E0,9.758572280E-2,4.581489484E-4,-7.467827946E-2
2.626546489E0,9.880745411E-2,4.581489484E-4,-7.590000331E-2
2.628668356E0,9.880745411E-2,-7.635815418E-4,-7.712173462E-2
2.630782237E0,9.636399150E-2,-1.985311974E-3,-7.712173462E-2
2.632923972E0,9.636399150E-2,-3.207042580E-3,-7.956519723E-2
2.635049988E0,9.636399150E-2,-4.428773187E-3,-8.200865984E-2
2.637179474E0,9.514226019E-2,-6.872233935E-3,-8.445212245E-2
2.639296163E0,9.758572280E-2,-1.038470957E-2,-8.567385375E-2
2.641403402E0,9.636399150E-2,-1.038470957E-2,-8.689557761E-2
2.643539907E0,9.285151958E-2,-1.282817032E-2,-8.811730891E-2
2.645678987E0,9.162978828E-2,-1.282817032E-2,-8.689557761E-2
2.647810537E0,9.040805697E-2,-1.527163107E-2,-8.811730891E-2
2.649929363E0,9.040805697E-2,-1.160643995E-2,-8.567385375E-2
2.652037416E0,9.040805697E-2,-9.162978269E-3,-8.323039114E-2
2.654173789E0,9.162978828E-2,-7.941247895E-3,-7.956519723E-2
2.656308067E0,9.040805697E-2,-4.428773187E-3,-7.834346592E-2
2.658437684E0,9.025534242E-2,-7.635815418E-4,-7.467827946E-2
2.660561169E0,8.781187981E-2,2.901609987E-3,-7.116580009E-2
2.662685202E0,8.659014851E-2,6.566801574E-3,-6.627888232E-2
2.664812197E0,8.536841720E-2,7.788531948E-3,-6.383541971E-2
2.666938112E0,8.414668590E-2,9.010262787E-3,-6.139195710E-2
2.669062765E0,8.292495459E-2,1.267545391E-2,-6.017022580E-2
2.671184805E0,8.414668590E-2,1.756237634E-2,-5.894849449E-2
2.673303102E0,8.292495459E-2,1.756237634E-2,-5.772676691E-2
2.675447848E0,8.170322329E-2,2.000583708E-2,-5.894849449E-2
2.677565563E0,8.414668590E-2,2.122756653E-2,-6.017022580E-2
2.679694703E0,8.170322329E-2,2.244929783E-2,-6.139195710E-2
2.681815991E0,8.048149943E-2,2.244929783E-2,-6.261368841E-2
2.683943015E0,8.292495459E-2,2.489275858E-2,-6.383541971E-2
2.686068748E0,7.925976813E-2,2.489275858E-2,-6.261368841E-2
2.688194317E0,7.819075137E-2,2.367102914E-2,-6.383541971E-2
2.690320162E0,7.696902007E-2,2.367102914E-2,-6.139195710E-2
2.692445376E0,7.574728876E-2,2.489275858E-2,-6.017022580E-2
2.694572096E0,7.330382615E-2,2.367102914E-2,-5.772676691E-2
2.696697970E0,7.208210230E-2,2.367102914E-2,-5.406157300E-2
2.698824689E0,6.719517708E-2,2.122756653E-2,-4.917465150E-2
2.700949353E0,6.597344577E-2,1.878410578E-2,-4.428773001E-2
2.703075351E0,6.230825558E-2,1.511891466E-2,-3.940080851E-2
2.705200503E0,5.619960278E-2,1.282817032E-2,-3.451388702E-2
2.707326519E0,5.131268129E-2,1.404990070E-2,-3.207042441E-2
2.709449190E0,4.780020565E-2,2.855795063E-2,-7.483099401E-2
2.711562055E0,4.046982154E-2,3.344487399E-2,-6.398813426E-2
2.713688082E0,3.802636266E-2,2.000583708E-2,-5.772676691E-2
2.715818617E0,3.069597855E-2,-3.054326167E-3,-3.817907721E-2
2.717959098E0,3.420845419E-2,-2.733621933E-2,-2.474004216E-2
2.720085035E0,3.420845419E-2,-3.344487399E-2,-1.007927675E-2
2.722210066E0,2.076941915E-2,-2.733621933E-2,4.581489135E-3
2.724329633E0,2.076941915E-2,-1.389718428E-2,1.664607786E-2
2.726445468E0,2.565634064E-2,-1.679879380E-3,2.641992271E-2
2.728584627E0,1.099557430E-2,5.650503561E-3,3.252857551E-2
2.730710706E0,1.221730490E-3,1.160643995E-2,3.619376570E-2
2.732839491E0,-1.206458826E-2,2.260201424E-2,3.970624134E-2
2.734953382E0,-2.794708498E-2,3.481931984E-2,4.581489414E-2
2.737068270E0,-3.527746722E-2,4.459316283E-2,4.703662544E-2
2.739213615E0,-4.382958263E-2,5.543602258E-2,4.810563847E-2
2.741340274E0,-5.589416996E-2,7.498370856E-2,5.054909736E-2
2.743470066E0,-6.078109145E-2,9.315694869E-2,5.299255997E-2
2.745590845E0,-6.566801667E-2,1.151480973E-1,5.528330430E-2
2.747717248E0,-7.055493444E-2,1.285871267E-1,5.772676691E-2
2.749844058E0,-7.422012836E-2,1.369865239E-1,5.894849449E-2
2.751968500E0,-7.788532227E-2,1.479821056E-1,6.017022580E-2
2.754090214E0,-8.155050874E-2,1.589776874E-1,6.123924255E-2
2.756198898E0,-7.910704613E-2,1.675297916E-1,6.123924255E-2
2.758328037E0,-8.032877743E-2,1.747074574E-1,6.246097013E-2
2.760452956E0,-8.155050874E-2,1.832595766E-1,6.368270516E-2
2.762601851E0,-7.788532227E-2,1.893682331E-1,6.368270516E-2
2.764726739E0,-7.788532227E-2,1.930334121E-1,6.490442902E-2
2.766851282E0,-7.788532227E-2,1.979203373E-1,6.734789163E-2
2.768961521E0,-7.788532227E-2,2.003637999E-1,6.856962293E-2
2.771100784E0,-7.681630552E-2,2.040289938E-1,7.223481685E-2
2.773226150E0,-7.437284291E-2,2.052507252E-1,7.712173462E-2
2.775352625E0,-7.803803682E-2,2.089159191E-1,8.200865984E-2
2.777466963E0,-8.292495459E-2,2.125810981E-1,8.796459436E-2
2.779603662E0,-8.414668590E-2,2.199114859E-1,9.407325089E-2
2.781729690E0,-8.659014851E-2,2.223549485E-1,1.026253626E-1
2.783858942E0,-8.781187981E-2,2.235766798E-1,1.123992056E-1
2.785977890E0,-9.147707373E-2,2.247984111E-1,1.233947799E-1
2.788094202E0,-9.514226019E-2,2.333505303E-1,1.356120855E-1
2.790232538E0,-9.880745411E-2,2.431243658E-1,1.476766765E-1
2.792358800E0,-1.001819000E-1,2.553416789E-1,1.623374373E-1
2.794487961E0,-1.026253626E-1,2.638937831E-1,1.757764816E-1
2.796608841E0,-1.038470939E-1,2.700024247E-1,1.904372424E-1
2.798723068E0,-1.062905490E-1,2.748893499E-1,2.038762718E-1
2.800862961E0,-1.099557430E-1,2.773328125E-1,2.159408629E-1
2.802988124E0,-1.099557430E-1,2.809980214E-1,2.244929820E-1
2.805116918E0,-1.087340117E-1,2.834414840E-1,2.318233550E-1
2.807238011E0,-1.064432710E-1,2.846632004E-1,2.391537428E-1
2.809362167E0,-1.076650023E-1,2.834414840E-1,2.415972054E-1
2.811490555E0,-1.052215397E-1,2.822197378E-1,2.415972054E-1
2.813616308E0,-1.015563458E-1,2.809980214E-1,2.403754741E-1
2.815738032E0,-9.911288321E-2,2.773328125E-1,2.367102802E-1
2.817846034E0,-9.666942805E-2,2.761110961E-1,2.307543457E-1
2.819982000E0,-9.300423414E-2,2.724458873E-1,2.246456891E-1
2.822119776E0,-8.811730891E-2,2.687807083E-1,2.148718536E-1
2.824250077E0,-8.323039114E-2,2.626720667E-1,2.050980031E-1
2.826374091E0,-7.956519723E-2,2.577851415E-1,1.953241676E-1
2.828492009E0,-7.590000331E-2,2.504547536E-1,1.855503172E-1
2.830603185E0,-6.856962293E-2,2.455678284E-1,1.771509200E-1
2.832749130E0,-6.368270516E-2,2.406809032E-1,1.685988009E-1
2.834875260E0,-5.879577994E-2,2.370157093E-1,1.600466967E-1
2.837005387E0,-5.513058975E-2,2.296853364E-1,1.527163088E-1
2.839124395E0,-5.268712714E-2,2.247984111E-1,1.466076523E-1
2.841239853E0,-4.780020565E-2,2.211332172E-1,1.404990107E-1
2.843377467E0,-4.413501546E-2,2.176207453E-1,1.369865239E-1
2.845502905E0,-3.924809024E-2,2.151772827E-1,1.333213449E-1
2.847631964E0,-3.802636266E-2,2.115120888E-1,1.296561509E-1
2.849755225E0,-3.558290005E-2,2.078468949E-1,1.284344196E-1
2.851881934E0,-3.191770986E-2,2.054034323E-1,1.259909570E-1
2.854006649E0,-2.947424725E-2,1.992947906E-1,1.247692257E-1
2.856132514E0,-2.703078650E-2,1.980730593E-1,1.211040318E-1
2.858252763E0,-2.947424725E-2,1.944078654E-1,1.174388453E-1
2.860363766E0,-2.825251780E-2,1.919644028E-1,1.125519201E-1
2.862509558E0,-2.825251780E-2,1.870774776E-1,1.088867337E-1
2.864635413E0,-2.825251780E-2,1.834122837E-1,1.039998084E-1
2.866766557E0,-3.054326214E-2,1.773036420E-1,9.789115191E-2
2.868888261E0,-2.932153270E-2,1.736384481E-1,9.071348608E-2
2.871013871E0,-2.932153270E-2,1.687515229E-1,8.460483700E-2
2.873138750E0,-2.932153270E-2,1.650863290E-1,7.971791178E-2
2.875264096E0,-2.809980139E-2,1.553124934E-1,7.360926270E-2
2.877389909E0,-2.687807009E-2,1.467603743E-1,6.872233748E-2
2.879512631E0,-2.443460934E-2,1.371392459E-1,6.383541971E-2
2.881626126E0,-2.321287990E-2,1.249219403E-1,6.032294407E-2
2.883758013E0,-2.199114859E-2,1.127046347E-1,5.665775016E-2
2.885894366E0,-1.954768784E-2,1.004873365E-1,5.543602258E-2
2.888022498E0,-1.954768784E-2,9.086620808E-2,5.421429127E-2
2.890147539E0,-2.076941915E-2,7.864890248E-2,5.299255997E-2
2.892270993E0,-2.076941915E-2,7.009678334E-2,5.192354694E-2
2.894393419E0,-2.061670274E-2,6.154467165E-2,5.192354694E-2
2.896509671E0,-2.061670274E-2,5.314527452E-2,5.314527452E-2
2.898644742E0,-2.306016348E-2,4.948008433E-2,5.558873713E-2
2.900755968E0,-2.306016348E-2,4.459316283E-2,5.681046844E-2
2.902883594E0,-2.306016348E-2,4.092797264E-2,5.803219974E-2
2.905029274E0,-2.672535367E-2,3.970624134E-2,5.925392732E-2
2.907169207E0,-2.916881628E-2,3.481931984E-2,6.291911751E-2
2.909281949E0,-3.527746722E-2,3.604105115E-2,6.414084882E-2
2.911402830E0,-3.894266114E-2,3.604105115E-2,6.658431143E-2
2.913525124E0,-4.016438872E-2,3.970624134E-2,6.902777404E-2
2.915654905E0,-4.260785133E-2,4.337143153E-2,7.147123665E-2
2.917780616E0,-4.260785133E-2,4.459316283E-2,7.513642311E-2
2.919904498E0,-4.505131021E-2,4.825835302E-2,7.620543987E-2
2.922021218E0,-4.749477282E-2,4.825835302E-2,7.864890248E-2
2.924157702E0,-4.871650413E-2,5.070181563E-2,8.109235764E-2
2.926283232E0,-4.871650413E-2,4.948008433E-2,8.231408894E-2
2.928413155E0,-5.238169432E-2,5.070181563E-2,8.231408894E-2
2.930537148E0,-5.360342562E-2,5.070181563E-2,8.231408894E-2
2.932647754E0,-5.604688451E-2,5.192354694E-2,8.353582025E-2
2.934787057E0,-5.726861581E-2,4.948008433E-2,8.109235764E-2
2.936912423E0,-5.726861581E-2,5.070181563E-2,7.987063378E-2
2.939042732E0,-5.849034712E-2,4.948008433E-2,7.742717117E-2
2.941164284E0,-5.849034712E-2,5.314527452E-2,7.620543987E-2
2.943289468E0,-5.726861581E-2,5.436700583E-2,7.376197726E-2
2.945415282E0,-5.849034712E-2,5.314527452E-2,7.254024595E-2
2.947541461E0,-5.849034712E-2,5.436700583E-2,7.009678334E-2
2.949667010E0,-5.726861581E-2,5.436700583E-2,7.131851465E-2
2.951791034E0,-5.604688451E-2,5.803219974E-2,7.009678334E-2
2.953919829E0,-5.726861581E-2,5.436700583E-2,7.131851465E-2
2.956044605E0,-5.849034712E-2,5.681046844E-2,7.254024595E-2
2.958171212E0,-6.093380973E-2,5.681046844E-2,7.376197726E-2
2.960295948E0,-6.215553731E-2,6.169738993E-2,7.498370856E-2
2.962421945E0,-6.337726861E-2,6.398813426E-2,7.620543987E-2
2.964547748E0,-6.704246253E-2,7.009678334E-2,7.864890248E-2
2.966673593E0,-6.826419383E-2,7.620543987E-2,7.864890248E-2
2.968799559E0,-6.948592514E-2,7.987063378E-2,8.109235764E-2
2.970922983E0,-7.177666575E-2,8.475755155E-2,7.987063378E-2
2.973041198E0,-7.422012836E-2,9.086620808E-2,8.093964309E-2
2.975188140E0,-7.422012836E-2,9.575312585E-2,8.093964309E-2
2.977302214E0,-7.666359097E-2,9.941831976E-2,8.216137439E-2
2.979431416E0,-7.788532227E-2,1.041525230E-1,8.338310570E-2
2.981551330E0,-8.032877743E-2,1.078177169E-1,8.582656831E-2
2.983679901E0,-8.277224004E-2,1.090394482E-1,8.704829961E-2
2.985806000E0,-8.521570265E-2,1.127046347E-1,8.827003092E-2
2.987932484E0,-8.765916526E-2,1.163698286E-1,8.949175477E-2
2.990057444E0,-9.132435173E-2,1.188132912E-1,9.071348608E-2
2.992180114E0,-9.254608303E-2,1.224784851E-1,9.193521738E-2
2.994295623E0,-9.621127695E-2,1.273654103E-1,9.193521738E-2
2.996434855E0,-9.865473956E-2,1.322523206E-1,9.300423414E-2
2.998560811E0,-1.010981947E-1,1.371392459E-1,9.666942805E-2
3.000689453E0,-1.059851199E-1,1.383609772E-1,9.666942805E-2
3.002812306E0,-1.096503139E-1,1.395827085E-1,9.911288321E-2
3.004939046E0,-1.120937690E-1,1.395827085E-1,1.027780771E-1
3.007065032E0,-1.169806942E-1,1.395827085E-1,1.052215397E-1
3.009189758E0,-1.194241568E-1,1.383609772E-1,1.076650023E-1
3.011317505E0,-1.243110746E-1,1.346957833E-1,1.088867337E-1
3.013447591E0,-1.302670091E-1,1.322523206E-1,1.088867337E-1
3.015550527E0,-1.351539344E-1,1.310305893E-1,1.088867337E-1
3.017679840E0,-1.400408596E-1,1.298088580E-1,1.088867337E-1
3.019814992E0,-1.437060535E-1,1.285871267E-1,1.088867337E-1
3.021940806E0,-1.473712474E-1,1.298088580E-1,1.113301888E-1
3.024065654E0,-1.473712474E-1,1.261436790E-1,1.125519201E-1
3.026195730E0,-1.534798890E-1,1.224784851E-1,1.137736514E-1
3.028322977E0,-1.571450830E-1,1.151480973E-1,1.149953827E-1
3.030449148E0,-1.595885456E-1,1.128573567E-1,1.186605766E-1
3.032573019E0,-1.618792862E-1,1.091921628E-1,1.211040318E-1
3.034698802E0,-1.643227488E-1,1.067487001E-1,1.235474944E-1
3.036824942E0,-1.679879427E-1,1.018617824E-1,1.247692257E-1
3.038951640E0,-1.716531366E-1,9.819658846E-2,1.247692257E-1
3.041073579E0,-1.704314053E-1,9.575312585E-2,1.247692257E-1
3.043191092E0,-1.728748679E-1,9.086620808E-2,1.223257631E-1
3.045327750E0,-1.740965992E-1,9.086620808E-2,1.223257631E-1
3.047454163E0,-1.740965992E-1,8.597928286E-2,1.211040318E-1
3.049582378E0,-1.740965992E-1,8.353582025E-2,1.211040318E-1
3.051705272E0,-1.740965992E-1,8.109235764E-2,1.211040318E-1
3.053831249E0,-1.728748679E-1,8.231408894E-2,1.235474944E-1
3.055957887E0,-1.716531366E-1,7.987063378E-2,1.235474944E-1
3.058082571E0,-1.704314053E-1,7.742717117E-2,1.259909570E-1
3.060208721E0,-1.692096740E-1,7.757988572E-2,1.272126883E-1
3.062331198E0,-1.667662114E-1,7.513642311E-2,1.296561509E-1
3.064448254E0,-1.667662114E-1,7.635815442E-2,1.320996135E-1
3.066585054E0,-1.655444801E-1,7.513642311E-2,1.345430762E-1
3.068711590E0,-1.644754708E-1,7.391469181E-2,1.369865239E-1
3.070840608E0,-1.644754708E-1,7.513642311E-2,1.382082552E-1
3.072964713E0,-1.632537395E-1,7.513642311E-2,1.406517178E-1
3.075090079E0,-1.632537395E-1,7.635815442E-2,1.406517178E-1
3.077214804E0,-1.632537395E-1,7.513642311E-2,1.418734491E-1
3.079340506E0,-1.632537395E-1,7.513642311E-2,1.430951804E-1
3.081466666E0,-1.620320082E-1,7.757988572E-2,1.418734491E-1
3.083589174E0,-1.620320082E-1,7.391469181E-2,1.418734491E-1
3.085704897E0,-1.620320082E-1,7.513642311E-2,1.430951804E-1
3.087843945E0,-1.620320082E-1,7.269296050E-2,1.418734491E-1
3.089970644E0,-1.620320082E-1,6.902777404E-2,1.406517178E-1
3.092098757E0,-1.620320082E-1,6.780604273E-2,1.418734491E-1
3.094224408E0,-1.608102769E-1,6.536258012E-2,1.418734491E-1
3.096358462E0,-1.595885456E-1,6.169738993E-2,1.408044398E-1
3.098472841E0,-1.595885456E-1,5.681046844E-2,1.395827085E-1
3.100598462E0,-1.571450830E-1,5.192354694E-2,1.408044398E-1
3.102720654E0,-1.559233516E-1,4.718934000E-2,1.408044398E-1
3.104844251E0,-1.547016203E-1,3.741549700E-2,1.408044398E-1
3.106964062E0,-1.547016203E-1,3.008511290E-2,1.432479024E-1
3.109101809E0,-1.547016203E-1,2.397646010E-2,1.444696337E-1
3.111228599E0,-1.583668143E-1,1.786780916E-2,1.469130963E-1
3.113356336E0,-1.595885456E-1,1.313360315E-2,1.505782902E-1
3.115479017E0,-1.644754708E-1,7.024950348E-3,1.542434692E-1
3.117604759E0,-1.681406647E-1,4.581489135E-3,1.579086632E-1
3.119730807E0,-1.716531366E-1,9.162978968E-4,1.603521258E-1
3.121856743E0,-1.728748679E-1,-1.527163084E-3,1.640173197E-1
3.123981855E0,-1.753183305E-1,-3.970623948E-3,1.676825136E-1
3.126102308E0,-1.789835095E-1,-3.970623948E-3,1.689042449E-1
3.128233919E0,-1.802052408E-1,-5.192354787E-3,1.713477075E-1
3.130359398E0,-1.826487035E-1,-2.748893574E-3,1.713477075E-1
3.132486860E0,-1.863138974E-1,-3.054326226E-4,1.701259762E-1
3.134611219E0,-1.863138974E-1,-3.054326226E-4,1.689042449E-1
3.136733717E0,-1.875356287E-1,3.359758761E-3,1.664607823E-1
3.138849907E0,-1.887573600E-1,3.359758761E-3,1.640173197E-1
3.140989942E0,-1.863138974E-1,8.246680722E-3,1.640173197E-1
3.143115675E0,-1.875356287E-1,5.803219974E-3,1.640173197E-1
3.145243981E0,-1.899790913E-1,7.024950348E-3,1.652390510E-1
3.147362521E0,-1.899790913E-1,8.246680722E-3,1.701259762E-1
3.149475212E0,-1.912008226E-1,8.246680722E-3,1.750128865E-1
3.151604515E0,-1.912008226E-1,8.246680722E-3,1.811215430E-1
3.153743645E0,-1.924225539E-1,8.246680722E-3,1.860084683E-1
3.155872694E0,-1.960877478E-1,9.468411095E-3,1.908953935E-1
3.157999087E0,-1.973094791E-1,1.313360315E-2,1.945605874E-1
3.160120741E0,-1.997529417E-1,1.679879427E-2,1.956295967E-1
3.162246993E0,-2.034181207E-1,2.046398632E-2,1.968513280E-1
3.164372532E0,-2.046398520E-1,2.535090782E-2,1.968513280E-1
3.166498672E0,-2.083050460E-1,3.023782931E-2,1.956295967E-1
3.168623081E0,-2.119702399E-1,3.497203439E-2,1.944078654E-1
3.170737939E0,-2.156354338E-1,3.497203439E-2,1.919644028E-1
3.172875828E0,-2.205223590E-1,3.985895589E-2,1.895209402E-1
3.175001825E0,-2.240348309E-1,4.230241850E-2,1.858557463E-1
3.177126815E0,-2.277000248E-1,4.596760869E-2,1.846340150E-1
3.179239892E0,-2.301434875E-1,5.085453019E-2,1.809688359E-1
3.181378574E0,-2.313652188E-1,5.329799280E-2,1.785253733E-1
3.183504398E0,-2.313652188E-1,5.696318299E-2,1.773036420E-1
3.185633631E0,-2.313652188E-1,5.925392732E-2,1.760819107E-1
3.187758112E0,-2.289217561E-1,5.925392732E-2,1.736384481E-1
3.189891728E0,-2.277000248E-1,5.925392732E-2,1.748601794E-1
3.192014124E0,-2.264782935E-1,6.047565863E-2,1.760819107E-1
3.194133641E0,-2.252565622E-1,6.169738993E-2,1.785253733E-1
3.196257482E0,-2.240348309E-1,6.062837690E-2,1.797471046E-1
3.198383509E0,-2.205223590E-1,6.414084882E-2,1.809688359E-1
3.200510788E0,-2.168571651E-1,6.307183951E-2,1.834122837E-1
3.202636551E0,-2.131919712E-1,6.429356337E-2,1.834122837E-1
3.204762354E0,-2.131919712E-1,6.780604273E-2,1.846340150E-1
3.206887284E0,-2.107485086E-1,7.147123665E-2,1.834122837E-1
3.209007095E0,-2.095267773E-1,7.391469181E-2,1.821905524E-1
3.211124680E0,-2.070833147E-1,7.635815442E-2,1.797471046E-1
3.213249629E0,-2.046398520E-1,8.002334833E-2,1.773036420E-1
3.215379492E0,-2.034181207E-1,8.124507964E-2,1.748601794E-1
3.217520634E0,-2.009746730E-1,8.368854225E-2,1.724167168E-1
3.219646428E0,-2.021963894E-1,8.368854225E-2,1.687515229E-1
3.221771978E0,-1.985312104E-1,8.368854225E-2,1.663080603E-1
3.223894801E0,-1.973094791E-1,8.246681094E-2,1.638645977E-1
3.226021276E0,-1.948660165E-1,8.002334833E-2,1.589776874E-1
3.228146134E0,-1.936442852E-1,7.513642311E-2,1.553124934E-1
3.230271754E0,-1.912008226E-1,7.391469181E-2,1.504255682E-1
3.232396745E0,-1.912008226E-1,7.147123665E-2,1.479821056E-1
3.234523646E0,-1.899790913E-1,6.658431143E-2,1.443169117E-1
3.236649308E0,-1.863138974E-1,6.291911751E-2,1.406517178E-1
3.238775274E0,-1.850921661E-1,5.925392732E-2,1.394299865E-1
3.240897985E0,-1.838704348E-1,5.436700583E-2,1.382082552E-1
3.243014787E0,-1.826487035E-1,4.825835302E-2,1.382082552E-1
3.245152695E0,-1.802052408E-1,4.352414981E-2,1.395827085E-1
3.247278651E0,-1.777617931E-1,3.985895589E-2,1.395827085E-1
3.249407883E0,-1.789835095E-1,3.863722831E-2,1.408044398E-1
3.251529995E0,-1.753183305E-1,3.863722831E-2,1.408044398E-1
3.253642513E0,-1.740965992E-1,3.619376570E-2,1.408044398E-1
3.255781429E0,-1.716531366E-1,3.863722831E-2,1.408044398E-1
3.257906540E0,-1.679879427E-1,4.108068720E-2,1.395827085E-1
3.260037329E0,-1.667662114E-1,4.108068720E-2,1.395827085E-1
3.262158922E0,-1.655444801E-1,3.863722831E-2,1.371392459E-1
3.264284776E0,-1.606575549E-1,4.352414981E-2,1.346957833E-1
3.266410183E0,-1.594358236E-1,4.459316283E-2,1.310305893E-1
3.268536220E0,-1.594358236E-1,4.825835302E-2,1.273654103E-1
3.270661261E0,-1.547016203E-1,5.192354694E-2,1.237002090E-1
3.272781287E0,-1.557706445E-1,4.948008433E-2,1.200350225E-1
3.274897579E0,-1.510364264E-1,5.314527452E-2,1.163698286E-1
3.277027573E0,-1.496619880E-1,5.192354694E-2,1.127046347E-1
3.279167111E0,-1.473712474E-1,5.314527452E-2,1.102611795E-1
3.281294522E0,-1.437060535E-1,5.803219974E-2,1.090394482E-1
3.283419685E0,-1.412625909E-1,5.925392732E-2,1.078177169E-1
3.285542416E0,-1.375973970E-1,5.681046844E-2,1.053742543E-1
3.287665279E0,-1.363756657E-1,5.681046844E-2,1.041525230E-1
3.289781114E0,-1.314887404E-1,6.047565863E-2,1.041525230E-1
3.291918352E0,-1.290452778E-1,5.925392732E-2,1.041525230E-1
3.294034401E0,-1.302670091E-1,5.681046844E-2,1.041525230E-1
3.296163246E0,-1.266018152E-1,5.681046844E-2,1.041525230E-1
3.298297533E0,-1.266018152E-1,5.803219974E-2,1.029307917E-1
3.300425270E0,-1.253800988E-1,5.925392732E-2,1.004873365E-1
3.302551877E0,-1.217148975E-1,5.681046844E-2,9.926560521E-2
3.304674731E0,-1.229366288E-1,5.681046844E-2,9.804387391E-2
3.306800738E0,-1.229366288E-1,6.047565863E-2,9.560041130E-2
3.308926744E0,-1.229366288E-1,5.925392732E-2,9.193521738E-2
3.311052589E0,-1.229366288E-1,5.803219974E-2,9.071348608E-2
3.313176033E0,-1.229366288E-1,6.032294407E-2,8.704829961E-2
3.315303709E0,-1.253800988E-1,6.032294407E-2,8.582656831E-2
3.317429287E0,-1.241583601E-1,6.398813426E-2,8.216137439E-2
3.319552478E0,-1.241583601E-1,6.643159688E-2,7.849618047E-2
3.321664681E0,-1.266018152E-1,6.520986557E-2,7.727445662E-2
3.323793791E0,-1.266018152E-1,6.887505949E-2,7.483099401E-2
3.325932981E0,-1.290452778E-1,6.887505949E-2,7.483099401E-2
3.328062853E0,-1.290452778E-1,6.643159688E-2,7.238753140E-2
3.330188118E0,-1.288925707E-1,6.520986557E-2,7.116580009E-2
3.332310311E0,-1.288925707E-1,6.643159688E-2,6.994406879E-2
3.334435535E0,-1.301143020E-1,6.276640296E-2,6.750060618E-2
3.336561491E0,-1.276708394E-1,6.154467165E-2,6.505715102E-2
3.338687528E0,-1.264491081E-1,5.910121277E-2,6.261368841E-2
3.340811684E0,-1.227839142E-1,5.787948146E-2,6.017022580E-2
3.342928271E0,-1.227839142E-1,5.421429127E-2,5.787948146E-2
3.345053556E0,-1.191187203E-1,5.421429127E-2,5.421429127E-2
3.347191811E0,-1.178969890E-1,5.177082866E-2,5.177082866E-2
3.349318612E0,-1.166752651E-1,5.177082866E-2,4.932736978E-2
3.351445046E0,-1.154535338E-1,5.054909736E-2,4.810563847E-2
3.353567585E0,-1.131627858E-1,4.810563847E-2,4.688390717E-2
3.355693653E0,-1.094975919E-1,4.688390717E-2,4.688390717E-2
3.357821806E0,-1.070541367E-1,4.566217586E-2,4.566217586E-2
3.359951435E0,-1.046106741E-1,4.077525437E-2,4.566217586E-2
3.362053740E0,-1.033889428E-1,3.726277873E-2,4.566217586E-2
3.364178130E0,-9.972374886E-2,3.359758854E-2,4.688390717E-2
3.366331471E0,-9.850201756E-2,3.237585723E-2,4.688390717E-2
3.368451516E0,-9.728029370E-2,3.359758854E-2,4.566217586E-2
3.370579629E0,-9.605856240E-2,3.115412779E-2,4.688390717E-2
3.372697264E0,-9.239336848E-2,3.115412779E-2,4.566217586E-2
3.374825856E0,-9.117163718E-2,2.871066704E-2,4.566217586E-2
3.376951996E0,-9.117163718E-2,2.504547499E-2,4.566217586E-2
3.379078470E0,-9.117163718E-2,2.626720630E-2,4.566217586E-2
3.381203337E0,-9.361509979E-2,2.382374369E-2,4.321871698E-2
3.383326527E0,-9.239336848E-2,2.504547499E-2,4.321871698E-2
3.385443909E0,-8.994990587E-2,2.748893574E-2,4.321871698E-2
3.387578918E0,-9.117163718E-2,2.993239649E-2,4.077525437E-2
3.389699177E0,-9.117163718E-2,2.993239649E-2,4.077525437E-2
3.391834930E0,-9.239336848E-2,2.993239649E-2,3.833179548E-2
3.393955016E0,-9.117163718E-2,2.871066704E-2,3.711006418E-2
3.396073517E0,-8.994990587E-2,2.748893574E-2,3.466660157E-2
3.398206735E0,-8.872817457E-2,2.382374369E-2,3.359758854E-2
3.400317057E0,-8.628471941E-2,2.382374369E-2,2.993239649E-2
3.402443175E0,-8.506298810E-2,2.015855350E-2,2.626720630E-2
3.404583679E0,-8.384125680E-2,1.893682219E-2,2.382374369E-2
3.406702861E0,-8.261952549E-2,1.771509275E-2,2.015855350E-2
3.408843882E0,-7.773260027E-2,1.404990070E-2,2.015855350E-2
3.410964670E0,-7.528914511E-2,1.527163107E-2,1.649336144E-2
3.413095255E0,-7.528914511E-2,1.160643995E-2,1.527163107E-2
3.415217937E0,-6.918048859E-2,7.941247895E-3,1.404990070E-2
3.417345265E0,-6.795875728E-2,6.719517522E-3,1.160643995E-2
3.419467356E0,-6.673702598E-2,5.497787148E-3,1.160643995E-2
3.421593251E0,-6.429356337E-2,5.497787148E-3,1.038470957E-2
3.423715281E0,-6.307183951E-2,5.497787148E-3,1.160643995E-2
3.425831991E0,-6.185010448E-2,4.276056774E-3,1.282817032E-2
3.427968821E0,-6.185010448E-2,4.276056774E-3,1.404990070E-2
3.430097595E0,-6.062837690E-2,3.054326167E-3,1.649336144E-2
3.432225536E0,-5.955936015E-2,4.276056774E-3,1.893682219E-2
3.434349173E0,-6.078109145E-2,3.054326167E-3,2.015855350E-2
3.436474010E0,-5.955936015E-2,4.276056774E-3,2.138028294E-2
3.438599914E0,-6.307183951E-2,4.276056774E-3,2.138028294E-2
3.440725637E0,-6.429356337E-2,4.276056774E-3,2.260201424E-2
3.442851197E0,-6.307183951E-2,4.276056774E-3,2.138028294E-2
3.444977306E0,-6.307183951E-2,6.108652451E-4,2.015855350E-2
3.447103831E0,-6.307183951E-2,-1.832595794E-3,1.893682219E-2
3.449228821E0,-6.307183951E-2,-4.276056774E-3,1.649336144E-2
3.451354880E0,-6.551529467E-2,-5.497787148E-3,1.404990070E-2
3.453480103E0,-6.429356337E-2,-5.497787148E-3,1.038470957E-2
3.455606080E0,-6.551529467E-2,-1.038470957E-2,9.162978269E-3
3.457731781E0,-6.551529467E-2,-1.404990070E-2,6.719517522E-3
3.459857565E0,-6.429356337E-2,-1.649336144E-2,4.428773187E-3
3.461983705E0,-6.551529467E-2,-2.122756653E-2,3.207042580E-3
3.464110323E0,-6.429356337E-2,-2.611448988E-2,1.985311974E-3
3.466230247E0,-6.307183951E-2,-2.977968007E-2,1.985311974E-3
3.468340211E0,-6.185010448E-2,-3.466660157E-2,-4.581489484E-4
3.470481945E0,-6.185010448E-2,-3.833179548E-2,1.985311974E-3
3.472612367E0,-5.818491429E-2,-4.199698567E-2,5.650503561E-3
3.474743074E0,-6.062837690E-2,-4.444044828E-2,8.093964309E-3
3.476865073E0,-6.062837690E-2,-4.932736978E-2,1.175915636E-2
3.478990053E0,-6.062837690E-2,-5.406157300E-2,1.542434748E-2
3.481113822E0,-5.940664560E-2,-5.528330430E-2,1.908953860E-2
3.483230257E0,-5.818491429E-2,-5.650503561E-2,2.397646010E-2
3.485367443E0,-5.940664560E-2,-5.772676691E-2,2.764165215E-2
3.487490357E0,-6.185010448E-2,-5.650503561E-2,2.764165215E-2
3.489611319E0,-6.185010448E-2,-5.650503561E-2,3.130684420E-2
3.491741721E0,-6.078109145E-2,-5.406157300E-2,3.375030309E-2
3.493870455E0,-6.200282276E-2,-5.283984542E-2,3.375030309E-2
3.495999168E0,-6.078109145E-2,-5.161811411E-2,3.375030309E-2
3.498123597E0,-6.078109145E-2,-5.039638281E-2,3.375030309E-2
3.500247804E0,-6.078109145E-2,-4.673119262E-2,3.130684420E-2
3.502373446E0,-5.955936015E-2,-4.428773001E-2,2.886338346E-2
3.504499107E0,-6.185010448E-2,-4.321871698E-2,2.764165215E-2
3.506625084E0,-5.955936015E-2,-4.321871698E-2,2.764165215E-2
3.508747682E0,-5.833763257E-2,-4.077525437E-2,2.519819140E-2
3.510863527E0,-5.833763257E-2,-4.199698567E-2,2.519819140E-2
3.512999545E0,-5.818491429E-2,-4.199698567E-2,2.275473066E-2
3.515113100E0,-5.467243865E-2,-4.199698567E-2,2.031126991E-2
3.517244600E0,-5.345070735E-2,-4.444044828E-2,1.908953860E-2
3.519380231E0,-5.345070735E-2,-4.566217586E-2,1.908953860E-2
3.521508649E0,-5.222897977E-2,-4.688390717E-2,1.664607786E-2
3.523634860E0,-5.345070735E-2,-5.161811411E-2,1.664607786E-2
3.525753909E0,-5.345070735E-2,-5.283984542E-2,1.664607786E-2
3.527869194E0,-5.451972410E-2,-5.650503561E-2,1.664607786E-2
3.530006106E0,-5.574145541E-2,-5.650503561E-2,1.664607786E-2
3.532135573E0,-5.940664560E-2,-5.650503561E-2,1.786780916E-2
3.534263635E0,-5.940664560E-2,-5.528330430E-2,1.908953860E-2
3.536384891E0,-6.429356337E-2,-5.406157300E-2,2.153299935E-2
3.538502006E0,-6.673702598E-2,-5.161811411E-2,2.397646010E-2
3.540637932E0,-6.918048859E-2,-5.039638281E-2,2.519819140E-2
3.542763614E0,-7.040221989E-2,-4.917465150E-2,2.764165215E-2
3.544891819E0,-7.406741381E-2,-4.444044828E-2,3.008511290E-2
3.547015454E0,-7.773260027E-2,-4.428773001E-2,3.252857551E-2
3.549142184E0,-8.139779419E-2,-3.955352306E-2,3.497203439E-2
3.551267826E0,-8.384125680E-2,-4.077525437E-2,3.741549700E-2
3.553392856E0,-8.628471941E-2,-3.711006418E-2,3.726277873E-2
3.555518111E0,-9.117163718E-2,-3.344487399E-2,4.092797264E-2
3.557643904E0,-9.361509979E-2,-3.344487399E-2,4.214970022E-2
3.559767551E0,-9.605856240E-2,-3.100141138E-2,4.581489414E-2
3.561886874E0,-9.972374886E-2,-2.733621933E-2,5.070181563E-2
3.564022057E0,-1.009454802E-1,-2.489275858E-2,5.192354694E-2
3.566148350E0,-1.021672115E-1,-2.244929783E-2,5.436700583E-2
3.568275466E0,-1.033889428E-1,-2.122756653E-2,5.558873713E-2
3.570399143E0,-1.033889428E-1,-2.000583708E-2,5.681046844E-2
3.572524448E0,-1.046106741E-1,-2.122756653E-2,5.681046844E-2
3.574650466E0,-1.070541367E-1,-1.878410578E-2,5.436700583E-2
3.576776321E0,-1.082758680E-1,-1.878410578E-2,5.436700583E-2
3.578899977E0,-1.094975919E-1,-1.511891466E-2,5.314527452E-2
3.581018019E0,-1.105666086E-1,-1.389718428E-2,4.948008433E-2
3.583154779E0,-1.105666086E-1,-1.267545391E-2,4.948008433E-2
3.585279546E0,-1.130100712E-1,-1.023199316E-2,4.948008433E-2
3.587404779E0,-1.166752651E-1,-6.566801574E-3,5.070181563E-2
3.589517725E0,-1.191187203E-1,-2.901609987E-3,5.177082866E-2
3.591657007E0,-1.215621829E-1,1.985311974E-3,5.543602258E-2
3.593782607E0,-1.240056455E-1,9.162978269E-3,5.787948146E-2
3.595911707E0,-1.252273768E-1,1.282817032E-2,6.276640296E-2
3.598034499E0,-1.313360333E-1,2.015855350E-2,6.643159688E-2
3.600162104E0,-1.313360333E-1,2.260201424E-2,7.131851465E-2
3.602287145E0,-1.350012124E-1,2.626720630E-2,7.620543987E-2
3.604398676E0,-1.362229437E-1,2.993239649E-2,8.109235764E-2
3.606537166E0,-1.398881376E-1,3.237585723E-2,8.475755155E-2
3.608661910E0,-1.411098689E-1,3.726277873E-2,8.949175477E-2
3.610792210E0,-1.435533315E-1,3.726277873E-2,9.315694869E-2
3.612914810E0,-1.459967941E-1,4.459316283E-2,9.682214260E-2
3.615041092E0,-1.484402567E-1,4.459316283E-2,9.682214260E-2
3.617167597E0,-1.508837193E-1,5.192354694E-2,9.682214260E-2
3.619293391E0,-1.507309973E-1,5.451972410E-2,9.682214260E-2
3.621418401E0,-1.531744599E-1,5.696318299E-2,9.804387391E-2
3.623543493E0,-1.543961912E-1,6.062837690E-2,9.804387391E-2
3.625669205E0,-1.556179225E-1,6.414084882E-2,9.926560521E-2
3.627794489E0,-1.543961912E-1,6.429356337E-2,1.017090604E-1
3.629918299E0,-1.531744599E-1,6.185010448E-2,1.029307917E-1
3.632047399E0,-1.556179225E-1,6.307183951E-2,1.065959856E-1
3.634173926E0,-1.556179225E-1,6.185010448E-2,1.102611795E-1
3.636299353E0,-1.556179225E-1,6.062837690E-2,1.114829108E-1
3.638424607E0,-1.568396538E-1,5.818491429E-2,1.151480973E-1
3.640546524E0,-1.568396538E-1,5.574145541E-2,1.175915599E-1
3.642662867E0,-1.568396538E-1,5.574145541E-2,1.200350225E-1
3.644801866E0,-1.592831165E-1,5.207626149E-2,1.237002090E-1
3.646927415E0,-1.617265791E-1,5.207626149E-2,1.273654103E-1
3.649054398E0,-1.629483104E-1,4.841107130E-2,1.298088580E-1
3.651168575E0,-1.666134894E-1,4.718934000E-2,1.322523206E-1
3.653297399E0,-1.678352207E-1,4.718934000E-2,1.359175146E-1
3.655430396E0,-1.715004146E-1,4.596760869E-2,1.395827085E-1
3.657558640E0,-1.715004146E-1,4.489859566E-2,1.420261711E-1
3.659684261E0,-1.751656085E-1,4.367686436E-2,1.432479024E-1
3.661808518E0,-1.751656085E-1,4.245513305E-2,1.456913650E-1
3.663930589E0,-1.763873398E-1,3.878994286E-2,1.469130963E-1
3.666047359E0,-1.763873398E-1,3.634648025E-2,1.505782902E-1
3.668186296E0,-1.788308024E-1,3.390302137E-2,1.530217379E-1
3.670314510E0,-1.812742651E-1,3.023782931E-2,1.554652005E-1
3.672453254E0,-1.837177277E-1,2.535090782E-2,1.566869318E-1
3.674562588E0,-1.824959964E-1,2.168571576E-2,1.591303945E-1
3.676688595E0,-1.837177277E-1,2.046398632E-2,1.603521258E-1
3.678811031E0,-1.861611903E-1,1.802052557E-2,1.603521258E-1
3.680940069E0,-1.873829067E-1,1.679879427E-2,1.615738571E-1
3.683066261E0,-1.873829067E-1,1.679879427E-2,1.603521258E-1
3.685193081E0,-1.886046380E-1,1.679879427E-2,1.627955884E-1
3.687318742E0,-1.910481006E-1,1.450804994E-2,1.640173197E-1
3.689443610E0,-1.910481006E-1,1.572977938E-2,1.640173197E-1
3.691565478E0,-1.910481006E-1,1.328631863E-2,1.640173197E-1
3.693677762E0,-1.922698319E-1,1.328631863E-2,1.652390510E-1
3.695808153E0,-1.910481006E-1,1.572977938E-2,1.664607823E-1
3.697946458E0,-1.910481006E-1,1.572977938E-2,1.652390510E-1
3.700076046E0,-1.910481006E-1,1.802052557E-2,1.652390510E-1
3.702200263E0,-1.922698319E-1,2.168571576E-2,1.652390510E-1
3.704316108E0,-1.886046380E-1,2.535090782E-2,1.640173197E-1
3.706449877E0,-1.886046380E-1,2.779436857E-2,1.652390510E-1
3.708575273E0,-1.886046380E-1,2.901609987E-2,1.664607823E-1
3.710703234E0,-1.910481006E-1,3.145955876E-2,1.687515229E-1
3.712823819E0,-1.898263693E-1,3.268129006E-2,1.699732542E-1
3.714936592E0,-1.910481006E-1,3.268129006E-2,1.711949855E-1
3.717062619E0,-1.934915632E-1,3.268129006E-2,1.748601794E-1
3.719192553E0,-1.934915632E-1,3.268129006E-2,1.797471046E-1
3.721333757E0,-1.947132945E-1,3.390302137E-2,1.834122837E-1
3.723459592E0,-1.947132945E-1,3.390302137E-2,1.846340150E-1
3.725585081E0,-1.959350258E-1,3.145955876E-2,1.870774776E-1
3.727707639E0,-1.959350258E-1,3.039054573E-2,1.882992089E-1
3.729833473E0,-1.983784884E-1,2.916881628E-2,1.882992089E-1
3.731961973E0,-1.983784884E-1,2.916881628E-2,1.870774776E-1
3.734093432E0,-1.971567571E-1,2.794708498E-2,1.858557463E-1
3.736206317E0,-1.971567571E-1,2.672535367E-2,1.846340150E-1
3.738336616E0,-1.983784884E-1,2.306016348E-2,1.834122837E-1
3.740460365E0,-2.008219510E-1,2.183843218E-2,1.846340150E-1
3.742589476E0,-2.032654136E-1,2.306016348E-2,1.834122837E-1
3.744711038E0,-2.008219510E-1,2.183843218E-2,1.846340150E-1
3.746826577E0,-2.032654136E-1,1.939497143E-2,1.858557463E-1
3.748965533E0,-2.032654136E-1,1.450804994E-2,1.882992089E-1
3.751091571E0,-2.057088763E-1,1.450804994E-2,1.919644028E-1
3.753219216E0,-2.044871449E-1,1.328631863E-2,1.944078654E-1
3.755333963E0,-2.044871449E-1,1.084285788E-2,1.957823038E-1
3.757468758E0,-2.044871449E-1,9.621127509E-3,1.982257664E-1
3.759594318E0,-2.032654136E-1,7.177666761E-3,1.982257664E-1
3.761722604E0,-2.057088763E-1,5.955935922E-3,1.970040351E-1
3.763846149E0,-2.044871449E-1,4.734205548E-3,1.957823038E-1
3.765970000E0,-2.020436823E-1,3.512475174E-3,1.945605874E-1
3.768090411E0,-2.008219510E-1,-2.596177394E-3,1.908953935E-1
3.770224455E0,-2.008219510E-1,-6.261368748E-3,1.884519309E-1
3.772349404E0,-2.008219510E-1,-8.704829961E-3,1.860084683E-1
3.774476195E0,-1.996002197E-1,-1.221730467E-2,1.835650057E-1
3.776596485E0,-1.996002197E-1,-1.710422710E-2,1.798998117E-1
3.778724079E0,-1.983784884E-1,-1.954768784E-2,1.774563491E-1
3.780842141E0,-1.959350258E-1,-2.199114859E-2,1.737911552E-1
3.782979298E0,-1.959350258E-1,-2.687807009E-2,1.701259762E-1
3.785104390E0,-1.959350258E-1,-2.809980139E-2,1.664607823E-1
3.787233458E0,-1.934915632E-1,-3.176499158E-2,1.627955884E-1
3.789355926E0,-1.922698319E-1,-3.420845419E-2,1.605048478E-1
3.791481739E0,-1.922698319E-1,-3.543018550E-2,1.568396538E-1
3.793607035E0,-1.910481006E-1,-4.031710699E-2,1.519527286E-1
3.795728505E0,-1.910481006E-1,-4.153883830E-2,1.495092660E-1
3.797841277E0,-1.861611903E-1,-4.520402849E-2,1.458440721E-1
3.799984557E0,-1.849394590E-1,-4.520402849E-2,1.434006095E-1
3.802110636E0,-1.824959964E-1,-4.764748737E-2,1.409571618E-1
3.804241556E0,-1.800525337E-1,-4.520402849E-2,1.360702366E-1
3.806362061E0,-1.751656085E-1,-4.642575979E-2,1.348485053E-1
3.808488056E0,-1.739438772E-1,-4.520402849E-2,1.311833113E-1
3.810613321E0,-1.715004146E-1,-4.764748737E-2,1.299615800E-1
3.812739359E0,-1.678352207E-1,-4.642575979E-2,1.299615800E-1
3.814865122E0,-1.678352207E-1,-4.398229718E-2,1.287398487E-1
3.816986246E0,-1.641700417E-1,-4.153883830E-2,1.287398487E-1
3.819095855E0,-1.629483104E-1,-3.558290005E-2,1.287398487E-1
3.821233582E0,-1.653917581E-1,-3.191770986E-2,1.299615800E-1
3.823369467E0,-1.629483104E-1,-2.825251780E-2,1.311833113E-1
3.825499095E0,-1.641700417E-1,-2.458732575E-2,1.311833113E-1
3.827622710E0,-1.653917581E-1,-2.214386500E-2,1.336267740E-1
3.829745982E0,-1.653917581E-1,-1.847867295E-2,1.360702366E-1
3.831868999E0,-1.666134894E-1,-1.725694351E-2,1.397354305E-1
3.833986410E0,-1.641700417E-1,-1.725694351E-2,1.421788931E-1
3.836120545E0,-1.653917581E-1,-1.603521220E-2,1.434006095E-1
3.838239094E0,-1.653917581E-1,-1.237002108E-2,1.470658034E-1
3.840377502E0,-1.653917581E-1,-1.237002108E-2,1.507309973E-1
3.842500794E0,-1.653917581E-1,-1.359175146E-2,1.531744599E-1
3.844629019E0,-1.653917581E-1,-1.481348183E-2,1.543961912E-1
3.846753266E0,-1.655444801E-1,-1.359175146E-2,1.580613852E-1
3.848878316E0,-1.655444801E-1,-1.114829071E-2,1.591303945E-1
3.851003642E0,-1.655444801E-1,-1.114829071E-2,1.615738571E-1
3.853129334E0,-1.655444801E-1,-1.114829071E-2,1.640173197E-1
3.855256054E0,-1.679879427E-1,-9.926560335E-3,1.664607823E-1
3.857378521E0,-1.679879427E-1,-7.483099122E-3,1.689042449E-1
3.859497031E0,-1.728748679E-1,-6.261368748E-3,1.750128865E-1
3.861632559E0,-1.728748679E-1,-3.817907767E-3,1.798998117E-1
3.863758333E0,-1.740965992E-1,-3.817907767E-3,1.835650057E-1
3.865884655E0,-1.765400618E-1,-5.039638374E-3,1.860084683E-1
3.867998444E0,-1.777617931E-1,-6.108652335E-3,1.921171248E-1
3.870123048E0,-1.814269722E-1,-7.330383174E-3,1.945605874E-1
3.872262747E0,-1.838704348E-1,-9.773843922E-3,1.982257664E-1
3.874389528E0,-1.838704348E-1,-1.099557430E-2,2.006692290E-1
3.876516614E0,-1.887573600E-1,-1.221730467E-2,2.006692290E-1
3.878638642E0,-1.899790913E-1,-1.466076635E-2,2.018909603E-1
3.880764771E0,-1.934915632E-1,-1.710422710E-2,2.031126916E-1
3.882890474E0,-1.947132945E-1,-1.466076635E-2,2.043344229E-1
3.885016227E0,-1.983784884E-1,-1.588249579E-2,2.043344229E-1
3.887139161E0,-1.947132945E-1,-1.710422710E-2,1.945605874E-1
3.889252869E0,-1.947132945E-1,-1.710422710E-2,2.006692290E-1
3.891381858E0,-2.057088763E-1,-1.710422710E-2,2.079996169E-1
3.893519889E0,-2.093740702E-1,-2.076941915E-2,2.128865421E-1
3.895648277E0,-2.105957866E-1,-1.832595654E-2,2.189951837E-1
3.897774039E0,-2.191479057E-1,-2.076941915E-2,2.202169150E-1
3.899893495E0,-2.179261744E-1,-2.321287990E-2,2.312124968E-1
3.902009636E0,-2.228130996E-1,-2.550362423E-2,2.336559594E-1
3.904148765E0,-2.289217561E-1,-1.954768784E-2,2.408336252E-1
3.906272321E0,-2.277000248E-1,-1.343903504E-2,2.457205504E-1
3.908392030E0,-2.313652188E-1,-1.099557430E-2,2.518292069E-1
3.910525636E0,-2.338086665E-1,-8.552113548E-3,2.579378486E-1
3.912651766E0,-2.386955917E-1,-8.552113548E-3,2.628247738E-1
3.914790103E0,-2.411390543E-1,-7.330383174E-3,2.677116990E-1
3.916903364E0,-2.435825169E-1,-5.955935922E-3,2.713768780E-1
3.919029502E0,-2.496911734E-1,2.443460980E-3,2.774855494E-1
3.921152600E0,-2.521346211E-1,8.552113548E-3,2.835941911E-1
3.923281527E0,-2.570215464E-1,1.710422710E-2,2.895501256E-1
3.925406497E0,-2.606867552E-1,2.199114859E-2,2.968805134E-1
3.927532616E0,-2.631302178E-1,2.809980139E-2,3.042109013E-1
3.929657768E0,-2.655736506E-1,3.543018550E-2,3.103195429E-1
3.931783806E0,-2.704605758E-1,3.909537569E-2,3.188716471E-1
3.933909569E0,-2.753475010E-1,4.276056588E-2,3.284927905E-1
3.936033379E0,-2.790127099E-1,4.764748737E-2,3.358231783E-1
3.938153007E0,-2.814561725E-1,5.009094998E-2,3.443752825E-1
3.940288088E0,-2.851213515E-1,5.009094998E-2,3.517056704E-1
3.942412743E0,-2.912299931E-1,5.253441259E-2,3.602577746E-1
3.944540652E0,-2.973386645E-1,5.619960278E-2,3.663664162E-1
3.946664015E0,-3.010038435E-1,5.742133409E-2,3.724750876E-1
3.948790032E0,-3.058907688E-1,6.108652428E-2,3.773620129E-1
3.950915856E0,-3.132211566E-1,6.108652428E-2,3.845396638E-1
3.953041752E0,-3.156646192E-1,6.352998316E-2,3.906483352E-1
3.955168044E0,-3.242167234E-1,6.230825558E-2,3.967569768E-1
3.957294548E0,-3.291036487E-1,6.352998316E-2,4.016439021E-1
3.959423261E0,-3.352122903E-1,6.123924255E-2,4.077525437E-1
3.961554141E0,-3.413209617E-1,6.123924255E-2,4.138612151E-1
3.963656508E0,-3.484986126E-1,6.001751125E-2,4.199698567E-1
3.965793329E0,-3.546072841E-1,6.001751125E-2,4.260784984E-1
3.967919203E0,-3.607159257E-1,6.001751125E-2,4.321871698E-1
3.970051293E0,-3.631593883E-1,6.001751125E-2,4.382958114E-1
3.972174859E0,-3.692680299E-1,6.123924255E-2,4.454734921E-1
3.974300582E0,-3.741549551E-1,6.246097013E-2,4.515821338E-1
3.976425430E0,-3.790418804E-1,6.612616032E-2,4.576907754E-1
3.978549788E0,-3.839288056E-1,6.734789163E-2,4.650211632E-1
3.980669051E0,-3.888157308E-1,7.101308554E-2,4.735732675E-1
3.982798954E0,-3.924809098E-1,7.590000331E-2,4.821254015E-1
3.984928451E0,-3.961461186E-1,7.712173462E-2,4.918992519E-1
3.987056247E0,-4.010330439E-1,7.712173462E-2,5.004513264E-1
3.989181502E0,-4.022547603E-1,8.078692853E-2,5.112941861E-1
3.991307092E0,-4.071416855E-1,7.834346592E-2,5.210680366E-1
3.993431747E0,-4.097378552E-1,8.216137439E-2,5.308418870E-1
3.995557571E0,-4.146247804E-1,8.460483700E-2,5.406157374E-1
3.997683079E0,-4.182899892E-1,8.704829961E-2,5.491678715E-1
3.999808740E0,-4.195117056E-1,8.949175477E-2,5.577199459E-1
4.001933517E0,-4.256203473E-1,9.071348608E-2,5.650503635E-1
4.004060785E0,-4.292855561E-1,8.949175477E-2,5.736024380E-1
4.006187047E0,-4.353941977E-1,9.193521738E-2,5.784893632E-1
4.008313705E0,-4.425718784E-1,9.560041130E-2,5.844452977E-1
4.010434941E0,-4.450153410E-1,9.682214260E-2,5.893322229E-1
4.012547541E0,-4.523457289E-1,1.029307917E-1,5.954409242E-1
4.014673294E0,-4.584543705E-1,1.078177169E-1,5.991060734E-1
4.016802679E0,-4.645630121E-1,1.139263660E-1,6.064364910E-1
4.018944991E0,-4.694499373E-1,1.175915599E-1,6.125451326E-1
4.021066960E0,-4.731151462E-1,1.237002090E-1,6.197227836E-1
4.023180516E0,-4.804455042E-1,1.261436790E-1,6.258314252E-1
4.025308700E0,-4.853324294E-1,1.298088580E-1,6.331618428E-1
4.027445765E0,-4.889976382E-1,1.359175146E-1,6.392704844E-1
4.029574041E0,-4.938845634E-1,1.406517178E-1,6.466008425E-1
4.031695786E0,-4.987714589E-1,1.443169117E-1,6.527095437E-1
4.033810369E0,-5.012149215E-1,1.479821056E-1,6.588181853E-1
4.035947719E0,-5.036584139E-1,1.553124934E-1,6.659958363E-1
4.038073400E0,-5.061018467E-1,1.638645977E-1,6.708827615E-1
4.040202987E0,-5.085453391E-1,1.675297916E-1,6.757696867E-1
4.042328008E0,-5.097670555E-1,1.711949855E-1,6.806566119E-1
4.044446589E0,-5.109887719E-1,1.724167168E-1,6.879869699E-1
4.046576605E0,-5.122104883E-1,1.711949855E-1,6.928738952E-1
4.048701350E0,-5.122104883E-1,1.711949855E-1,7.002043128E-1
4.050829280E0,-5.123631954E-1,1.701259762E-1,7.050912380E-1
4.052953965E0,-5.099197626E-1,1.689042449E-1,7.111998796E-1
4.055079707E0,-5.099197626E-1,1.676825136E-1,7.148650289E-1
4.057206009E0,-5.099197626E-1,1.627955884E-1,7.209737301E-1
4.059332281E0,-5.099197626E-1,1.579086632E-1,7.270823717E-1
4.061457149E0,-5.123631954E-1,1.542434692E-1,7.319692969E-1
4.063582841E0,-5.123631954E-1,1.518000066E-1,7.368562222E-1
4.065708492E0,-5.135849714E-1,1.482875347E-1,7.429648638E-1
4.067834559E0,-5.172501206E-1,1.397354305E-1,7.490735054E-1
4.069960271E0,-5.209153295E-1,1.348485053E-1,7.539604306E-1
4.072086106E0,-5.258022547E-1,1.299615800E-1,7.600690722E-1
4.074208798E0,-5.294674635E-1,1.275181174E-1,7.661777139E-1
4.076325537E0,-5.319108963E-1,1.252273768E-1,7.722864151E-1
4.078463496E0,-5.367978215E-1,1.240056455E-1,7.783950567E-1
4.080589555E0,-5.416847467E-1,1.264491081E-1,7.832819819E-1
4.082721483E0,-5.429064631E-1,1.264491081E-1,7.906123400E-1
4.084854235E0,-5.490151644E-1,1.276708394E-1,7.967209816E-1
4.086966569E0,-5.539020896E-1,1.288925707E-1,8.014551997E-1
4.089092383E0,-5.587889552E-1,1.325577646E-1,8.087855577E-1
4.091215186E0,-5.624541640E-1,1.350012124E-1,8.148942590E-1
4.093345303E0,-5.685628057E-1,1.411098689E-1,8.197811842E-1
4.095470984E0,-5.746715069E-1,1.459967941E-1,8.283332586E-1
4.097595791E0,-5.795583725E-1,1.508837193E-1,8.356636763E-1
4.099721147E0,-5.856670737E-1,1.545489132E-1,8.440630436E-1
4.101846870E0,-5.917757154E-1,1.618792862E-1,8.526151776E-1
4.103972104E0,-5.965099335E-1,1.643227488E-1,8.587238193E-1
4.106098091E0,-6.001750827E-1,1.655444801E-1,8.660541773E-1
4.108235612E0,-6.050620079E-1,1.655444801E-1,8.721628785E-1
4.110351304E0,-6.099489331E-1,1.655444801E-1,8.794932365E-1
4.112477139E0,-6.123924255E-1,1.667662114E-1,8.880453706E-1
4.114599586E0,-6.148358583E-1,1.655444801E-1,8.929322958E-1
4.116727578E0,-6.197227836E-1,1.631010175E-1,9.014843702E-1
4.118853563E0,-6.210972667E-1,1.606575549E-1,9.075930119E-1
4.120979357E0,-6.270532012E-1,1.606575549E-1,9.149234295E-1
4.123105496E0,-6.307183504E-1,1.620320082E-1,9.221010804E-1
4.125227994E0,-6.320928335E-1,1.620320082E-1,9.294314981E-1
4.127344662E0,-6.357579827E-1,1.656972021E-1,9.355401397E-1
4.129482510E0,-6.382014751E-1,1.705841124E-1,9.428704977E-1
4.131608599E0,-6.406449080E-1,1.779145002E-1,9.489791393E-1
4.133737119E0,-6.443101168E-1,1.803579628E-1,9.550877810E-1
4.135860146E0,-6.479753256E-1,1.840231568E-1,9.636399150E-1
4.137986691E0,-6.528622508E-1,1.840231568E-1,9.697485566E-1
4.140111549E0,-6.565274000E-1,1.864666194E-1,9.769262671E-1
4.142237527E0,-6.601926088E-1,1.864666194E-1,9.854783416E-1
4.144365324E0,-6.626361012E-1,1.864666194E-1,9.903652668E-1
4.146493539E0,-6.699664593E-1,1.889100820E-1,9.964739084E-1
4.148608507E0,-6.724098921E-1,1.901318133E-1,1.002582550E0
4.150740232E0,-6.772968173E-1,1.925752759E-1,1.007469535E0
4.152864602E0,-6.785185933E-1,1.962404549E-1,1.011134744E0
4.154993600E0,-6.821837425E-1,1.999056488E-1,1.014799833E0
4.157117714E0,-6.869179606E-1,2.072360367E-1,1.018465042E0
4.159240660E0,-6.893614531E-1,2.109012306E-1,1.021977544E0
4.161357898E0,-6.930266023E-1,2.121229619E-1,1.026864529E0
4.163496540E0,-6.942483783E-1,2.170098722E-1,1.029307961E0
4.165621306E0,-6.979135275E-1,2.217440903E-1,1.032973170E0
4.167749693E0,-6.992880106E-1,2.278527319E-1,1.037860036E0
4.169872373E0,-7.005097270E-1,2.351831198E-1,1.042747021E0
4.171998371E0,-7.041749358E-1,2.400700450E-1,1.047633886E0
4.174124114E0,-7.090618610E-1,2.486221492E-1,1.052368045E0
4.176250243E0,-7.127270103E-1,2.522873580E-1,1.059698462E0
4.178376707E0,-7.174612284E-1,2.596177161E-1,1.064585447E0
4.180501657E0,-7.176139355E-1,2.632829249E-1,1.068250656E0
4.182627572E0,-7.212791443E-1,2.706133127E-1,1.073137522E0
4.184752725E0,-7.260133624E-1,2.730567753E-1,1.076802731E0
4.186874297E0,-7.249443531E-1,2.755002379E-1,1.081689596E0
4.188986560E0,-7.286095023E-1,2.755002379E-1,1.084133148E0
4.191130868E0,-7.298312783E-1,2.730567753E-1,1.089020014E0
4.193256580E0,-7.286095023E-1,2.718350291E-1,1.091463447E0
4.195387756E0,-7.298312783E-1,2.681698501E-1,1.093906879E0
4.197507933E0,-7.273877859E-1,2.669481039E-1,1.095128655E0
4.199630706E0,-7.261660695E-1,2.645046413E-1,1.098793864E0
4.201746276E0,-7.237225771E-1,2.657263875E-1,1.100015640E0
4.203885233E0,-7.225008607E-1,2.632829249E-1,1.102459073E0
4.206011047E0,-7.188356519E-1,2.573269904E-1,1.104902506E0
4.208136728E0,-7.151705027E-1,2.524400651E-1,1.108567715E0
4.210247151E0,-7.115052938E-1,2.475531399E-1,1.111011147E0
4.212378875E0,-7.115052938E-1,2.414444834E-1,1.113454580E0
4.214511027E0,-7.090618610E-1,2.328923792E-1,1.114676356E0
4.216627055E0,-7.078400850E-1,2.255619913E-1,1.103833556E0
4.218756897E0,-7.066183686E-1,2.208277881E-1,1.109942198E0
4.220898183E0,-7.067710757E-1,2.134974003E-1,1.127046347E0
4.223020711E0,-7.092145681E-1,2.049452960E-1,1.131933331E0
4.225146362E0,-7.116580009E-1,1.977676302E-1,1.138041973E0
4.227267598E0,-7.141014934E-1,1.904372424E-1,1.142928839E0
4.229392394E0,-7.177666426E-1,1.818851233E-1,1.147815824E0
4.231507263E0,-7.212791443E-1,1.733330190E-1,1.139263630E0
4.233647400E0,-7.249443531E-1,1.696678251E-1,1.140485406E0
4.235771709E0,-7.296785116E-1,1.611157060E-1,1.084285855E0
4.237901255E0,-7.283040881E-1,1.487456858E-1,9.867000580E-1
4.240020274E0,-7.341073155E-1,1.424843222E-1,9.243918061E-1
4.242133352E0,-7.353290319E-1,1.363756657E-1,9.037751555E-1
